,participant,block_label,trial_block,f_cor,f_inc,cor_option,inc_option,times_seen,rt,accuracy,feedback_type
0,1,1,1,43,39,2,1,1,1.2440824150808112,0,0
1,1,1,2,60,50,4,3,1,1.1018207586012068,1,0
2,1,1,3,44,36,4,2,2,1.0299232879742704,0,0
3,1,1,4,55,55,4,3,2,1.3680067775831048,0,0
4,1,1,5,52,49,4,3,3,1.0393291640184543,1,0
5,1,1,6,60,35,3,1,3,1.2414981543915928,0,0
6,1,1,7,56,51,4,3,5,1.0175488060376665,1,0
7,1,1,8,36,40,2,1,3,1.1387933335563505,1,0
8,1,1,9,48,32,3,1,5,1.1202802511425034,1,0
9,1,1,10,49,50,4,2,5,1.138936012326667,0,0
10,1,1,11,62,37,4,2,6,1.069218659651597,1,0
11,1,1,12,50,42,4,2,7,1.2465987497516835,1,0
12,1,1,13,49,56,4,3,8,1.4034675719831284,0,0
13,1,1,14,48,38,3,1,6,1.2634143644072535,1,0
14,1,1,15,57,53,4,3,9,1.4325259125807857,0,0
15,1,1,16,48,28,3,1,8,1.1712896181061296,1,0
16,1,1,17,53,41,4,2,9,1.216336855701229,1,0
17,1,1,18,59,39,4,2,10,1.27985894599351,1,0
18,1,1,19,53,36,3,1,9,1.2527417876081015,1,0
19,1,1,20,48,31,2,1,8,1.5069100215796425,0,0
20,1,1,21,40,34,2,1,9,1.2636369159808964,1,0
21,1,1,22,54,47,4,3,12,1.3068064600029174,0,0
22,1,1,23,55,38,4,2,12,1.181139914625419,1,0
23,1,1,24,46,38,3,1,11,1.663861105971591,1,0
24,1,1,25,51,52,4,3,14,1.6161203799210853,1,0
25,1,1,26,43,41,2,1,11,1.5274250441516417,1,0
26,1,1,27,61,53,4,3,15,1.5656906027943478,1,0
27,1,1,28,38,34,2,1,12,1.3598112817262518,1,0
28,1,1,29,56,40,4,2,15,1.3258899161610316,1,0
29,1,1,30,42,37,3,1,14,1.247650067003633,1,0
30,1,1,31,52,26,3,1,15,1.2967264438375423,1,0
31,1,1,32,45,35,2,1,15,1.4086893418962063,1,0
32,1,1,33,50,42,3,1,17,1.2309170558473852,1,0
33,1,1,34,50,35,4,2,17,1.4394352514864297,1,0
34,1,1,35,44,34,2,1,17,1.3044979994247117,1,0
35,1,1,36,51,40,4,3,19,1.8457731243715896,1,0
36,1,1,37,60,40,4,2,19,1.898259796877028,1,0
37,1,1,38,48,56,4,3,20,1.5284118487552405,0,0
38,1,1,39,64,43,4,2,20,1.2224061648148563,1,0
39,1,1,40,51,46,4,3,22,1.0051831988585036,1,0
40,1,1,41,58,37,4,2,22,1.2244992418918628,1,0
41,1,1,42,57,41,3,1,20,1.2428088875903995,1,0
42,1,1,43,54,39,4,2,23,1.7508995930584206,1,0
43,1,1,44,40,42,2,1,20,1.4776192306408116,1,0
44,1,1,45,47,33,3,1,21,1.5318992865377368,1,0
45,1,1,46,52,47,4,2,24,1.3847292072996424,1,0
46,1,1,47,58,34,4,2,25,1.2119049390748842,1,0
47,1,1,48,46,35,4,2,26,1.2807781659148532,1,0
48,1,1,49,46,37,2,1,23,1.2199007529206938,1,0
49,1,1,50,45,33,2,1,24,1.28387818646479,1,0
50,1,1,51,58,39,3,1,23,1.226722026939569,1,0
51,1,1,52,38,36,2,1,26,1.4863427744812725,1,0
52,1,1,53,51,40,3,1,25,1.0694927530794305,1,0
53,1,1,54,30,29,2,1,27,1.3583626484733031,1,0
54,1,1,55,44,43,3,1,26,1.0812671649728145,1,0
55,1,1,56,57,46,4,2,29,1.1695948810402117,1,0
56,1,1,57,53,55,4,3,28,1.4767600859895538,0,0
57,1,1,58,56,47,4,3,29,1.325771813638312,1,0
58,1,1,59,53,54,4,3,30,1.1721948432214049,1,0
59,1,1,60,49,32,3,1,29,1.4197906376784886,1,0
60,1,1,61,59,52,4,3,32,2.4884447263129914,0,0
61,1,1,62,45,35,3,1,30,1.2281423292406544,1,0
62,1,1,63,54,37,3,1,31,1.176391920149399,1,0
63,1,1,64,54,42,4,2,32,1.0478933035874434,1,0
64,1,1,65,33,36,2,1,31,1.3436486443124522,1,0
65,1,1,66,55,43,4,3,34,1.7855555153537352,1,0
66,1,1,67,41,31,2,1,32,1.6416882107050697,0,0
67,1,1,68,32,30,2,1,33,1.247007671202482,1,0
68,1,1,69,48,50,4,3,35,1.4615176925080955,1,0
69,1,1,70,34,44,2,1,34,1.359110858673375,1,0
70,1,1,71,44,33,3,1,35,1.451641113058031,1,0
71,1,1,72,42,46,2,1,36,1.4411535407889462,1,0
72,1,1,73,45,39,3,1,37,1.3549158297655597,1,0
73,1,1,74,37,36,2,1,37,1.2959239610909208,1,0
74,1,1,75,47,51,4,3,37,1.5526406153894643,1,0
75,1,1,76,49,38,3,1,39,1.6154988056623552,1,0
76,1,1,77,44,30,2,1,39,1.1817099470317771,0,0
77,1,1,78,57,50,4,3,39,1.4866298387050847,1,0
78,1,1,79,52,39,4,2,39,2.0937802296375594,1,0
79,1,1,80,54,41,4,2,40,1.1090386659461728,1,0
80,1,2,1,55,44,4,2,1,1.274764153358774,0,0
81,1,2,2,52,45,4,3,1,1.8701903089031475,0,0
82,1,2,3,57,36,3,1,1,2.36402474282022,0,0
83,1,2,4,46,43,4,3,3,1.1335333339247882,0,0
84,1,2,5,53,38,3,1,3,2.0689507102870266,1,0
85,1,2,6,55,39,3,1,4,1.1790785818684526,1,0
86,1,2,7,60,47,4,3,5,1.1125694534994182,1,0
87,1,2,8,54,46,4,3,6,1.135401470069155,1,0
88,1,2,9,50,26,3,1,6,1.259248007788301,1,0
89,1,2,10,53,37,4,2,4,1.4602342662528829,1,0
90,1,2,11,36,33,2,1,4,1.5221609484797227,1,0
91,1,2,12,58,43,4,2,5,1.3146974834608045,1,0
92,1,2,13,39,36,2,1,5,1.4333597983113575,1,0
93,1,2,14,40,29,2,1,6,1.1698348407899175,1,0
94,1,2,15,33,43,2,1,7,1.0712765790403864,1,0
95,1,2,16,49,40,4,2,8,1.1717811430544316,1,0
96,1,2,17,34,34,2,1,9,1.849992046853004,1,0
97,1,2,18,60,44,4,3,9,1.128029278502254,1,0
98,1,2,19,55,42,3,1,10,1.7749870462694162,1,0
99,1,2,20,50,35,3,1,11,1.1277391422481742,1,0
100,1,2,21,47,42,4,2,10,1.1467662778386511,1,0
101,1,2,22,57,53,4,3,11,1.2817403942708552,1,0
102,1,2,23,52,44,4,3,12,1.2635034533041107,1,0
103,1,2,24,42,39,2,1,11,1.9327703097087576,1,0
104,1,2,25,61,37,4,2,12,1.300853205390922,1,0
105,1,2,26,49,52,4,3,14,1.0943714249242475,1,0
106,1,2,27,58,36,4,2,14,1.5361158196619726,1,0
107,1,2,28,44,37,2,1,13,1.7259287602846598,1,0
108,1,2,29,54,43,4,2,15,1.3848066907476095,1,0
109,1,2,30,40,36,3,1,14,1.4148217983120048,1,0
110,1,2,31,58,35,3,1,15,1.1082703168767694,1,0
111,1,2,32,54,45,4,3,17,1.5823208715828514,0,0
112,1,2,33,56,44,3,1,17,1.2872755113394303,1,0
113,1,2,34,39,42,2,1,16,1.97574631578118,1,0
114,1,2,35,51,48,4,3,18,1.8613391051103465,0,0
115,1,2,36,51,34,4,2,18,1.215496143236123,1,0
116,1,2,37,53,30,3,1,19,1.4188601536425267,1,0
117,1,2,38,41,37,2,1,18,1.9263391836184385,1,0
118,1,2,39,50,30,3,1,20,1.4055872733260912,1,0
119,1,2,40,59,45,4,2,19,0.9964060651454928,1,0
120,1,2,41,53,50,4,3,21,1.2394928008661736,1,0
121,1,2,42,48,46,3,1,22,1.0322494980637202,1,0
122,1,2,43,62,51,4,3,23,1.6620632852027484,0,0
123,1,2,44,38,34,2,1,21,2.1063871619144265,1,0
124,1,2,45,51,42,4,3,24,1.089468122217113,1,0
125,1,2,46,59,45,4,2,22,1.3533112056084065,1,0
126,1,2,47,48,52,4,3,25,1.5725743414413955,0,0
127,1,2,48,48,39,3,1,25,1.4190601769896602,1,0
128,1,2,49,56,51,4,3,27,1.598911886643691,1,0
129,1,2,50,48,52,4,3,28,1.0222128316681849,1,0
130,1,2,51,49,34,3,1,27,1.0835005314611408,1,0
131,1,2,52,49,37,3,1,28,0.9938238524764528,1,0
132,1,2,53,54,33,3,1,29,1.116555584303569,1,0
133,1,2,54,38,38,2,1,24,1.6548941890150672,0,0
134,1,2,55,35,31,2,1,25,1.253484195083729,0,0
135,1,2,56,56,46,4,2,26,1.4197930270356665,1,0
136,1,2,57,35,33,2,1,27,1.8253011102324308,1,0
137,1,2,58,54,47,4,2,27,1.252672837580576,1,0
138,1,2,59,47,41,3,1,31,1.3108864584191906,1,0
139,1,2,60,41,40,2,1,29,1.2594736313931207,1,0
140,1,2,61,40,28,2,1,30,1.018483727451894,1,0
141,1,2,62,64,50,4,2,29,1.1256976070244489,1,0
142,1,2,63,55,30,4,2,30,1.0671853165113134,1,0
143,1,2,64,39,31,2,1,32,1.3845431787594862,1,0
144,1,2,65,44,48,4,2,32,1.1424971788510447,1,0
145,1,2,66,53,46,4,2,33,0.9871312624209168,1,0
146,1,2,67,56,38,3,1,34,1.741653121285708,1,0
147,1,2,68,38,41,2,1,34,1.5166995601539384,1,0
148,1,2,69,56,51,4,3,34,1.7987727577756232,1,0
149,1,2,70,41,35,2,1,35,1.413965384354924,1,0
150,1,2,71,49,36,3,1,36,1.3260530751367696,1,0
151,1,2,72,57,40,4,2,35,2.4049182532562554,1,0
152,1,2,73,43,32,2,1,37,1.2723096006429842,1,0
153,1,2,74,32,32,2,1,38,1.3866447892560243,1,0
154,1,2,75,50,54,4,3,36,1.1905290651675386,1,0
155,1,2,76,46,40,3,1,39,1.145762406396898,1,0
156,1,2,77,57,60,4,3,38,1.3021222955030678,1,0
157,1,2,78,52,47,4,3,39,1.2039944594216652,1,0
158,1,2,79,50,37,4,2,39,1.0890178990175627,1,0
159,1,2,80,55,42,4,2,40,1.0144593669301685,1,0
160,1,3,1,44,37,3,1,1,0.9820412485014458,1,0
161,1,3,2,58,39,4,2,1,1.2706264690277749,0,0
162,1,3,3,53,53,4,3,2,1.2599224892455825,1,0
163,1,3,4,61,41,4,2,2,1.5176665672242962,1,0
164,1,3,5,53,43,4,3,3,1.6137931458215462,1,0
165,1,3,6,51,31,3,1,3,1.5211895040310992,1,0
166,1,3,7,43,39,2,1,3,1.4769768348387515,0,0
167,1,3,8,52,35,4,2,4,0.933008562773466,1,0
168,1,3,9,38,31,2,1,4,1.5215246967391067,1,0
169,1,3,10,46,41,2,1,5,1.7926071916926958,1,0
170,1,3,11,43,32,2,1,6,1.2151333022484323,1,0
171,1,3,12,49,42,3,1,6,1.2354213358694324,1,0
172,1,3,13,40,34,2,1,8,1.4301013975009482,1,0
173,1,3,14,60,42,4,2,7,1.4358099136479725,1,0
174,1,3,15,59,58,4,3,6,1.1146813040977577,1,0
175,1,3,16,53,37,4,2,9,1.1104190318465044,1,0
176,1,3,17,47,46,4,3,8,1.0623557425478791,1,0
177,1,3,18,36,44,2,1,10,1.163403714699598,1,0
178,1,3,19,45,35,2,1,11,1.2624582801136055,1,0
179,1,3,20,58,34,4,2,11,0.9941952268827664,1,0
180,1,3,21,51,56,4,3,9,1.0702030748980178,0,0
181,1,3,22,43,36,2,1,12,1.4474358440475044,1,0
182,1,3,23,55,50,4,3,10,1.5275144743854985,0,0
183,1,3,24,54,55,4,3,11,1.545770871548484,1,0
184,1,3,25,48,33,3,1,11,1.5210604787316695,1,0
185,1,3,26,30,40,2,1,14,1.290255040007651,1,0
186,1,3,27,53,36,3,1,13,1.6900836206823442,1,0
187,1,3,28,56,50,4,2,15,1.117756748399188,1,0
188,1,3,29,47,42,3,1,14,1.6130527863660973,1,0
189,1,3,30,48,39,4,2,16,1.2276695778136857,1,0
190,1,3,31,56,52,4,3,15,1.8120108217408413,0,0
191,1,3,32,44,34,3,1,15,1.1559885147007662,1,0
192,1,3,33,53,35,3,1,16,1.0926855626157703,1,0
193,1,3,34,44,55,4,3,17,2.336632808334798,1,0
194,1,3,35,45,37,3,1,18,1.070277827650898,1,0
195,1,3,36,62,40,4,2,18,1.4912750908124508,0,0
196,1,3,37,51,45,4,2,19,0.9838697895793302,1,0
197,1,3,38,54,56,4,3,19,2.9751971049172425,1,0
198,1,3,39,52,49,4,3,20,1.0438378814178575,0,0
199,1,3,40,37,26,2,1,19,1.218380438946042,1,0
200,1,3,41,55,44,4,2,21,1.0116819096283507,1,0
201,1,3,42,54,52,4,3,22,1.6127049641972917,0,0
202,1,3,43,40,40,2,1,21,1.0858301549187672,1,0
203,1,3,44,57,42,4,2,23,1.021934983536994,1,0
204,1,3,45,39,32,2,1,22,1.1502718064703004,1,0
205,1,3,46,41,36,2,1,23,1.2411861725840936,1,0
206,1,3,47,48,48,4,3,23,1.0397237493252758,0,0
207,1,3,48,59,51,4,3,24,0.8887658559460759,0,0
208,1,3,49,57,42,4,3,25,1.821864190291308,1,0
209,1,3,50,48,29,3,1,24,1.2899300874023538,1,0
210,1,3,51,52,37,4,2,27,1.1832917016254214,0,0
211,1,3,52,50,39,3,1,25,1.0157868256292204,1,0
212,1,3,53,40,30,3,1,26,1.1371371675468254,1,0
213,1,3,54,60,38,3,1,27,1.0774452171544908,1,0
214,1,3,55,55,34,4,2,28,0.9180890738780364,1,0
215,1,3,56,49,49,4,3,29,1.6542292649864976,0,0
216,1,3,57,46,34,2,1,27,1.5768318349792023,1,0
217,1,3,58,51,39,3,1,29,1.262481832350204,1,0
218,1,3,59,46,28,3,1,30,1.0214274157597174,1,0
219,1,3,60,35,46,2,1,29,1.0007413834646286,1,0
220,1,3,61,57,37,3,1,31,0.9735556163896036,1,0
221,1,3,62,50,52,4,3,32,1.205433876581992,1,0
222,1,3,63,45,36,3,1,33,0.9980318521820664,1,0
223,1,3,64,56,42,4,2,31,1.2201031656250052,1,0
224,1,3,65,32,30,2,1,32,1.2595811524761302,1,0
225,1,3,66,51,41,4,2,32,1.0747274937893962,1,0
226,1,3,67,54,43,3,1,34,1.045806370572791,1,0
227,1,3,68,57,44,4,2,33,1.3635543807495196,1,0
228,1,3,69,38,41,2,1,34,1.0017449135702918,1,0
229,1,3,70,46,47,4,3,35,1.2402754860804637,1,0
230,1,3,71,40,35,2,1,35,1.199654021049355,1,0
231,1,3,72,64,50,4,3,36,1.4033436667350545,1,0
232,1,3,73,38,38,2,1,36,1.2438458686983722,1,0
233,1,3,74,49,36,4,2,37,1.0570831134555192,1,0
234,1,3,75,54,47,4,2,38,0.8723793016115451,1,0
235,1,3,76,50,33,3,1,38,1.1015374490807517,1,0
236,1,3,77,60,33,4,2,39,0.965255330144828,1,0
237,1,3,78,54,38,3,1,39,1.0126711035900369,1,0
238,1,3,79,50,47,4,3,40,1.6465153953131448,1,0
239,1,3,80,48,33,2,1,40,0.962010241468306,1,0
240,2,1,1,52,46,3,1,1,0.88008029554112,0,0
241,2,1,2,55,40,4,2,1,1.3946424810656026,1,0
242,2,1,3,49,41,4,2,2,1.0289004555797874,1,0
243,2,1,4,33,32,2,1,2,1.195417788377199,0,0
244,2,1,5,42,40,2,1,3,1.0515848675468078,0,0
245,2,1,6,42,35,3,1,3,1.055160005693324,0,0
246,2,1,7,54,47,4,3,3,1.5622667618308697,0,0
247,2,1,8,59,38,4,2,4,1.3676217548891143,0,0
248,2,1,9,50,39,2,1,5,1.1369103146862471,0,0
249,2,1,10,58,51,4,3,4,1.1235941709610415,1,0
250,2,1,11,52,40,4,2,6,0.9521800526126754,1,0
251,2,1,12,53,46,4,3,6,1.0910431422980764,0,0
252,2,1,13,39,36,2,1,7,1.2441589977324838,0,0
253,2,1,14,46,33,2,1,8,0.8527865017204022,0,0
254,2,1,15,61,37,4,2,9,1.0244088341478346,1,0
255,2,1,16,48,33,2,1,9,1.0813287608152675,0,0
256,2,1,17,34,42,2,1,10,1.1025884423434036,0,0
257,2,1,18,47,53,4,3,7,1.0758633118939542,1,0
258,2,1,19,50,26,3,1,8,1.1121942794379718,1,0
259,2,1,20,45,41,2,1,12,1.138408090721896,0,0
260,2,1,21,47,29,3,1,10,0.9364482842302096,0,0
261,2,1,22,55,54,4,3,9,0.8511149863961691,1,0
262,2,1,23,50,43,3,1,11,1.0912581830689303,1,0
263,2,1,24,56,41,4,2,12,0.7557447459230389,1,0
264,2,1,25,51,39,4,2,13,0.7525368837586939,0,0
265,2,1,26,60,43,4,3,12,0.9897620113069934,1,0
266,2,1,27,52,39,4,2,15,0.8642877696065625,0,0
267,2,1,28,62,58,4,3,13,0.7647307194620225,1,0
268,2,1,29,50,35,3,1,13,1.0579910345068129,0,0
269,2,1,30,48,40,4,2,16,0.9176858063192412,1,0
270,2,1,31,51,38,3,1,14,1.006944451554773,1,0
271,2,1,32,36,40,2,1,17,0.9662932125274892,0,0
272,2,1,33,45,30,2,1,18,1.10154976128797,1,0
273,2,1,34,55,39,3,1,16,0.9789857380183092,1,0
274,2,1,35,56,40,4,2,18,0.6931009800737229,0,0
275,2,1,36,53,47,4,3,17,1.018977860017003,1,0
276,2,1,37,48,49,4,3,18,0.9755454270216432,1,0
277,2,1,38,60,36,3,1,18,0.7400867058040603,1,0
278,2,1,39,54,35,4,2,20,1.0997529761816622,0,0
279,2,1,40,57,55,4,3,20,0.7292906351112833,0,0
280,2,1,41,44,45,4,3,21,0.7310532867622896,1,0
281,2,1,42,32,34,2,1,21,1.119108352217154,0,0
282,2,1,43,60,43,4,2,23,1.2747756834623942,0,0
283,2,1,44,34,39,2,1,22,0.98482085226442,1,0
284,2,1,45,49,43,4,2,24,1.1136084285062682,1,0
285,2,1,46,54,36,4,2,25,1.3135055502707471,0,0
286,2,1,47,53,30,3,1,21,1.00276378590479,0,0
287,2,1,48,43,38,2,1,25,1.3059009576818426,1,0
288,2,1,49,44,28,3,1,23,1.1320363985523727,1,0
289,2,1,50,56,30,4,2,27,1.5366540407012508,0,0
290,2,1,51,46,37,3,1,24,1.0629195641704428,1,0
291,2,1,52,55,56,4,3,25,1.0144538118020137,0,0
292,2,1,53,48,31,3,1,25,0.9474904571397929,1,0
293,2,1,54,53,44,4,2,28,1.5198443377894364,0,0
294,2,1,55,54,41,3,1,26,1.0605855184721804,1,0
295,2,1,56,41,33,2,1,29,1.576100027409666,0,0
296,2,1,57,38,36,2,1,30,1.11131329494674,1,0
297,2,1,58,58,53,4,3,28,1.3504126905463636,0,0
298,2,1,59,37,37,2,1,31,1.3209084141353742,1,0
299,2,1,60,46,44,4,2,31,1.7177890258890331,0,0
300,2,1,61,35,32,2,1,32,1.327439850877454,1,0
301,2,1,62,51,40,4,3,29,1.3574042462696525,0,0
302,2,1,63,59,48,4,3,30,1.591196572181616,1,0
303,2,1,64,57,52,4,3,31,1.1398133650918678,1,0
304,2,1,65,47,42,2,1,33,1.6026425438703882,1,0
305,2,1,66,50,36,3,1,32,1.1483975878572892,1,0
306,2,1,67,49,34,3,1,33,1.2336066399129777,1,0
307,2,1,68,50,37,4,2,35,1.303979585462912,1,0
308,2,1,69,50,52,4,3,34,1.8047740416432128,1,0
309,2,1,70,64,46,4,2,36,1.2344845523921322,1,0
310,2,1,71,48,38,3,1,34,1.2097357490265497,1,0
311,2,1,72,44,31,3,1,35,1.2495548144042914,1,0
312,2,1,73,51,42,4,2,37,1.4741918648369392,1,0
313,2,1,74,54,56,4,3,37,1.4679761625593528,1,0
314,2,1,75,51,44,3,1,37,1.1039053110634995,1,0
315,2,1,76,52,49,4,3,38,1.3063187511797878,1,0
316,2,1,77,38,37,2,1,38,1.1159653436197914,1,0
317,2,1,78,57,57,4,3,39,1.1633446280939097,0,0
318,2,1,79,45,35,3,1,39,0.9776227891334202,1,0
319,2,2,1,43,39,2,1,1,1.6409720252440818,0,0
320,2,2,2,49,28,3,1,1,1.941464878210354,0,0
321,2,2,3,30,36,2,1,2,1.1577238719492016,1,0
322,2,2,4,37,39,2,1,3,1.3379969873813025,1,0
323,2,2,5,55,51,4,3,1,1.3936727495902232,0,0
324,2,2,6,52,50,4,3,2,1.3906126852889429,1,0
325,2,2,7,56,43,4,3,3,1.2387631810606765,1,0
326,2,2,8,51,36,3,1,5,1.7043462470428494,0,0
327,2,2,9,44,29,2,1,5,1.7265637133377822,1,0
328,2,2,10,52,48,4,3,5,1.788947382254264,1,0
329,2,2,11,48,35,2,1,6,1.6454165425066094,0,0
330,2,2,12,50,33,4,2,5,1.3599178339454738,1,0
331,2,2,13,57,42,3,1,7,1.832853246279228,0,0
332,2,2,14,38,35,2,1,8,2.3129532709581326,0,0
333,2,2,15,54,43,4,2,7,1.1489304111000822,1,0
334,2,2,16,59,45,4,2,8,1.022537979442859,1,0
335,2,2,17,40,37,2,1,10,1.2320392316287323,1,0
336,2,2,18,46,46,2,1,11,1.068728395655853,1,0
337,2,2,19,54,45,4,3,8,1.2525496838043182,1,0
338,2,2,20,60,48,4,3,9,0.9070300241291988,1,0
339,2,2,21,52,26,3,1,11,1.5327949122038262,1,0
340,2,2,22,50,56,4,3,10,0.9965897264437444,1,0
341,2,2,23,40,33,2,1,12,1.2756358465458106,1,0
342,2,2,24,57,36,4,2,12,1.2490923060804562,0,0
343,2,2,25,54,46,4,2,13,1.7721998022307162,0,0
344,2,2,26,47,37,3,1,13,1.8478962015269644,1,0
345,2,2,27,51,56,4,3,13,1.0601513409164909,1,0
346,2,2,28,55,45,4,3,14,1.6499064572644784,0,0
347,2,2,29,53,41,3,1,15,2.2475730259684497,1,0
348,2,2,30,52,42,4,3,15,1.0916623231842095,1,0
349,2,2,31,32,34,2,1,15,1.4991707276949455,1,0
350,2,2,32,46,30,3,1,17,2.0116108362799423,1,0
351,2,2,33,42,38,2,1,17,1.2441934725220565,1,0
352,2,2,34,61,51,4,3,17,1.2574020958627443,1,0
353,2,2,35,49,60,4,3,18,0.9055520454985526,1,0
354,2,2,36,44,32,3,1,19,1.8869462401489727,1,0
355,2,2,37,58,39,4,2,17,1.115978655667277,0,0
356,2,2,38,40,40,3,1,20,1.4764194141534972,1,0
357,2,2,39,54,40,3,1,21,1.4176982650305945,1,0
358,2,2,40,49,31,3,1,22,1.1616420513246342,1,0
359,2,2,41,55,50,4,2,18,1.0800869856984718,1,0
360,2,2,42,40,35,2,1,21,1.3486954363916084,1,0
361,2,2,43,35,36,2,1,22,1.0768173419801317,1,0
362,2,2,44,34,41,2,1,23,1.221432260279471,0,0
363,2,2,45,55,30,3,1,25,1.4480138936824003,0,0
364,2,2,46,41,38,2,1,24,1.6576666984101394,1,0
365,2,2,47,46,36,3,1,26,1.2815829185265102,1,0
366,2,2,48,37,34,2,1,26,1.1054665753263178,1,0
367,2,2,49,53,41,4,2,22,1.1754405007786772,1,0
368,2,2,50,53,39,3,1,28,1.5453413465029369,1,0
369,2,2,51,56,40,4,2,23,1.2370169134683238,0,0
370,2,2,52,47,32,3,1,29,1.2216397916909043,1,0
371,2,2,53,51,37,4,2,24,1.0214501462105543,0,0
372,2,2,54,58,44,4,2,25,1.0300657717552897,1,0
373,2,2,55,44,50,4,3,26,0.978355293092136,1,0
374,2,2,56,48,39,4,2,26,0.8781377605791931,0,0
375,2,2,57,57,48,4,3,27,0.9152155681322256,1,0
376,2,2,58,45,43,2,1,30,1.0000283307681457,1,0
377,2,2,59,53,52,4,3,28,1.0348407008696086,1,0
378,2,2,60,55,34,3,1,32,1.1570739709532063,1,0
379,2,2,61,54,38,4,2,29,1.0394555440752808,1,0
380,2,2,62,47,35,4,2,30,1.1247611938106274,1,0
381,2,2,63,57,47,4,3,31,0.9727195182267678,1,0
382,2,2,64,48,42,4,2,31,0.9106072102831604,1,0
383,2,2,65,50,44,3,1,33,1.0151832437495614,1,0
384,2,2,66,64,54,4,3,33,1.1967496758179552,1,0
385,2,2,67,46,39,4,2,33,1.3718519140502394,1,0
386,2,2,68,56,41,4,2,34,1.0314768488124173,1,0
387,2,2,69,58,37,3,1,35,1.3914346189021671,1,0
388,2,2,70,62,47,4,2,35,0.945141392719961,1,0
389,2,2,71,53,38,4,2,36,0.9962279118135484,1,0
390,2,2,72,49,34,4,2,37,1.0337661796847897,1,0
391,2,2,73,59,44,4,3,37,0.9267298067334196,1,0
392,2,2,74,51,49,4,3,38,1.2008811892910671,1,0
393,2,2,75,42,33,2,1,37,1.9246364018963504,1,0
394,2,2,76,60,53,4,3,39,1.3203271213851622,1,0
395,2,2,77,52,42,3,1,38,1.1405356290133568,1,0
396,2,2,78,50,31,3,1,39,1.5311145221812694,1,0
397,2,2,79,36,38,2,1,39,1.1800085811510144,1,0
398,2,2,80,43,33,2,1,40,1.3395169501627606,1,0
399,2,3,1,49,50,4,3,1,1.2721593540854883,0,0
400,2,3,2,54,33,3,1,1,1.2525247663825212,1,0
401,2,3,3,61,40,4,2,1,1.3221423385584783,0,0
402,2,3,4,48,43,4,2,2,0.9096309934511736,1,0
403,2,3,5,42,39,2,1,2,1.4537210074695397,1,0
404,2,3,6,56,53,4,3,3,1.3057261943895355,0,0
405,2,3,7,55,35,4,2,4,1.2641728081280237,1,0
406,2,3,8,44,38,4,2,5,1.3406163887693765,1,0
407,2,3,9,50,37,2,1,4,1.5993862121995337,1,0
408,2,3,10,38,34,2,1,5,1.345126100932248,1,0
409,2,3,11,53,43,4,3,5,1.7589055039170491,1,0
410,2,3,12,57,51,4,3,6,1.1298989615579558,1,0
411,2,3,13,60,45,4,2,8,1.2632518874943344,1,0
412,2,3,14,45,35,3,1,5,1.4197455897010514,1,0
413,2,3,15,46,37,2,1,7,2.130535550505556,0,0
414,2,3,16,50,38,3,1,7,1.93258335304472,1,0
415,2,3,17,44,28,3,1,8,1.3200301603210391,1,0
416,2,3,18,51,32,4,2,10,1.787806983500559,1,0
417,2,3,19,52,39,4,2,11,0.9449645814192992,1,0
418,2,3,20,43,35,2,1,10,1.7691479299592174,1,0
419,2,3,21,55,41,3,1,9,1.3365425608353692,1,0
420,2,3,22,55,40,4,3,11,1.12605041443112,0,0
421,2,3,23,56,57,4,3,12,0.9389352478110596,1,0
422,2,3,24,51,48,4,3,13,1.3978312284934873,1,0
423,2,3,25,51,42,3,1,12,1.314913555316707,1,0
424,2,3,26,49,32,3,1,13,1.0055763826521795,1,0
425,2,3,27,52,48,4,2,14,0.9305063322681236,1,0
426,2,3,28,54,38,4,2,15,1.1438278008126872,1,0
427,2,3,29,54,30,3,1,14,1.3924162970870384,1,0
428,2,3,30,42,38,3,1,15,1.0258465353008432,1,0
429,2,3,31,58,55,4,3,17,1.5340462446883976,1,0
430,2,3,32,49,44,4,2,16,0.834032215838306,1,0
431,2,3,33,37,32,2,1,15,2.004594021797857,1,0
432,2,3,34,60,41,4,2,18,1.0525627910519688,1,0
433,2,3,35,39,37,2,1,17,1.196430186672842,1,0
434,2,3,36,52,48,4,3,19,1.054414872356574,1,0
435,2,3,37,49,31,3,1,18,0.965491417654448,1,0
436,2,3,38,59,41,4,2,20,1.5599593402275789,1,0
437,2,3,39,53,34,4,2,21,0.8980013837699516,1,0
438,2,3,40,50,51,4,3,21,1.4335320924456028,1,0
439,2,3,41,52,46,3,1,19,1.2112420584253414,1,0
440,2,3,42,47,39,3,1,20,0.99934463765112,1,0
441,2,3,43,64,45,4,3,23,0.9442778162920148,1,0
442,2,3,44,33,36,2,1,20,1.6051493048553311,1,0
443,2,3,45,41,40,2,1,21,1.3407785226836495,1,0
444,2,3,46,57,36,4,2,24,1.073998942545586,1,0
445,2,3,47,58,34,3,1,23,0.8990782942964871,1,0
446,2,3,48,50,46,4,2,25,0.9638246810145574,1,0
447,2,3,49,57,52,4,3,26,1.0816871621000246,0,0
448,2,3,50,42,29,2,1,24,1.1817623581027874,1,0
449,2,3,51,48,36,3,1,25,1.6346511919236946,1,0
450,2,3,52,48,53,4,3,27,0.9367322745820276,1,0
451,2,3,53,46,36,3,1,26,1.1750609367518337,1,0
452,2,3,54,47,40,3,1,27,0.9445310865330612,1,0
453,2,3,55,53,56,4,3,29,0.9961309727996196,1,0
454,2,3,56,35,33,2,1,26,1.303974124110027,1,0
455,2,3,57,56,40,4,2,28,0.965721477145962,1,0
456,2,3,58,45,39,2,1,28,1.106274514220786,1,0
457,2,3,59,54,46,4,3,31,1.0773675732853008,1,0
458,2,3,60,54,37,4,2,30,0.8714592086435005,1,0
459,2,3,61,55,43,4,2,31,0.9080710945263492,1,0
460,2,3,62,34,33,2,1,30,1.217633547998048,1,0
461,2,3,63,60,36,3,1,31,1.0813096460806264,1,0
462,2,3,64,44,38,2,1,31,1.2146489186343388,0,0
463,2,3,65,40,26,2,1,32,0.9722283377996064,1,0
464,2,3,66,30,44,2,1,33,1.00669254665263,1,0
465,2,3,67,47,50,4,3,33,1.0434692971266486,1,0
466,2,3,68,51,47,4,3,34,0.9768363543144004,1,0
467,2,3,69,62,40,4,2,35,0.9571956225890972,1,0
468,2,3,70,58,53,4,3,36,0.8548792238871101,1,0
469,2,3,71,54,44,4,3,37,0.8595241045341027,1,0
470,2,3,72,50,30,3,1,35,1.2829397233890631,1,0
471,2,3,73,52,35,3,1,36,0.964725462908973,1,0
472,2,3,74,59,56,4,3,39,1.2167286700887416,1,0
473,2,3,75,37,41,2,1,36,1.227743194897812,1,0
474,2,3,76,46,47,4,2,38,0.9874979391925078,1,0
475,2,3,77,36,34,2,1,37,1.39107963096194,1,0
476,2,3,78,39,42,2,1,38,1.0392824874552389,1,0
477,2,3,79,49,31,3,1,39,1.7639115165256951,1,0
478,2,3,80,42,43,2,1,40,1.3360227083048812,1,0
479,3,1,1,50,41,3,1,1,2.456583973536908,0,0
480,3,1,2,48,34,3,1,2,2.1701681453896526,1,0
481,3,1,3,52,46,4,2,1,1.4949569353784682,0,0
482,3,1,4,55,48,4,3,2,1.7793506907100891,0,0
483,3,1,5,48,52,4,3,3,1.853334867068952,0,0
484,3,1,6,54,52,4,3,4,1.6441496593297416,0,0
485,3,1,7,53,39,4,2,3,1.3121733630478047,0,0
486,3,1,8,47,34,3,1,4,1.845676658814228,0,0
487,3,1,9,57,40,4,2,4,1.2442042047787254,0,0
488,3,1,10,41,40,2,1,4,1.3757921975438876,0,0
489,3,1,11,41,37,2,1,5,1.4536914946302204,1,0
490,3,1,12,57,39,4,2,6,1.2446209756944882,0,0
491,3,1,13,51,45,4,3,7,1.9823304150268088,0,0
492,3,1,14,59,33,4,2,8,1.207052542148631,1,0
493,3,1,15,54,42,4,2,9,1.224804047696125,1,0
494,3,1,16,43,28,2,1,7,1.902152701996784,1,0
495,3,1,17,64,50,4,3,9,1.3409848286510169,0,0
496,3,1,18,50,51,4,3,10,1.2069228345744705,1,0
497,3,1,19,53,34,4,2,11,1.189712004811554,1,0
498,3,1,20,38,26,2,1,9,1.6513593524450698,1,0
499,3,1,21,54,44,4,3,12,1.1396855000921278,1,0
500,3,1,22,51,45,4,2,13,1.0657781242716735,1,0
501,3,1,23,53,38,3,1,9,1.277372138199098,1,0
502,3,1,24,59,46,4,3,14,1.2013904651967096,0,0
503,3,1,25,48,32,2,1,11,1.6327005765506328,0,0
504,3,1,26,38,38,2,1,12,1.3596176630317132,0,0
505,3,1,27,60,42,4,2,16,1.1653143514267867,1,0
506,3,1,28,60,42,3,1,12,1.2087923303233763,1,0
507,3,1,29,49,35,3,1,13,1.1195245056860583,1,0
508,3,1,30,54,39,3,1,14,1.195818842209519,1,0
509,3,1,31,49,44,4,3,17,1.1575267769339916,1,0
510,3,1,32,61,39,4,2,17,1.1458599219640746,1,0
511,3,1,33,54,49,4,3,18,1.036599722767278,1,0
512,3,1,34,53,51,4,3,19,1.2668583152963038,1,0
513,3,1,35,56,48,4,3,20,1.0184666038830985,1,0
514,3,1,36,57,29,3,1,17,1.3611779086159004,1,0
515,3,1,37,35,38,2,1,16,1.506027818178154,0,0
516,3,1,38,46,33,2,1,17,1.7204224917031752,1,0
517,3,1,39,45,44,2,1,18,1.078939347031337,1,0
518,3,1,40,58,50,4,3,22,1.1685939050412344,1,0
519,3,1,41,49,52,4,3,23,1.0007161223447838,1,0
520,3,1,42,50,55,4,3,24,1.0895009569348986,1,0
521,3,1,43,49,33,3,1,21,1.0671854514530423,1,0
522,3,1,44,38,36,2,1,19,1.2275855924917778,1,0
523,3,1,45,56,42,3,1,22,1.1660707513856323,1,0
524,3,1,46,40,37,2,1,21,1.1300437899599274,0,0
525,3,1,47,47,30,3,1,24,1.2797485174933172,1,0
526,3,1,48,44,34,2,1,22,1.3459072310952251,1,0
527,3,1,49,37,36,2,1,23,1.7628358444835612,1,0
528,3,1,50,56,47,4,3,26,1.409764317923873,1,0
529,3,1,51,43,31,2,1,24,1.3587295074839858,0,0
530,3,1,52,44,55,4,3,27,1.0418726769967182,1,0
531,3,1,53,37,43,2,1,25,1.8110338137403232,1,0
532,3,1,54,60,41,4,2,27,1.159093849232704,1,0
533,3,1,55,43,39,3,1,28,1.3794147935577712,1,0
534,3,1,56,51,36,3,1,29,1.259795737877539,1,0
535,3,1,57,47,43,4,2,28,1.9824594399296984,1,0
536,3,1,58,56,39,3,1,30,1.1690103346218166,1,0
537,3,1,59,46,35,3,1,31,1.3376830882152717,1,0
538,3,1,60,55,50,4,3,31,1.031970186372746,0,0
539,3,1,61,37,32,2,1,29,1.1573424556445389,1,0
540,3,1,62,52,30,4,2,30,1.0459533455505152,1,0
541,3,1,63,57,47,4,2,31,1.074289330494139,1,0
542,3,1,64,54,40,3,1,33,1.1338722114151096,1,0
543,3,1,65,42,36,3,1,34,0.9870579147736862,1,0
544,3,1,66,35,31,2,1,32,1.554159226970114,1,0
545,3,1,67,40,46,2,1,33,1.0537590108360746,1,0
546,3,1,68,51,53,4,3,34,0.931476171182112,1,0
547,3,1,69,58,40,4,2,33,1.0416456887423922,1,0
548,3,1,70,46,36,4,2,34,0.9223478299754788,1,0
549,3,1,71,40,35,3,1,36,1.10891545011782,1,0
550,3,1,72,56,58,4,3,37,1.3315301704933518,1,0
551,3,1,73,52,44,4,2,36,0.9808828102304687,1,0
552,3,1,74,62,32,4,2,37,0.9595950666071076,1,0
553,3,1,75,50,33,2,1,37,1.833321671028898,1,0
554,3,1,76,55,36,4,2,38,1.9343782074884075,0,0
555,3,1,77,45,41,3,1,38,1.4019944928895711,1,0
556,3,1,78,34,37,2,1,39,1.2414980951762118,1,0
557,3,1,79,48,42,4,2,40,0.9860001153720076,1,0
558,3,1,80,53,30,3,1,40,1.0927665157851152,1,0
559,3,2,1,49,52,4,3,1,2.952584713552824,1,0
560,3,2,2,41,39,2,1,1,1.3665041112180916,1,0
561,3,2,3,48,35,3,1,2,1.2716789996948137,0,0
562,3,2,4,32,26,2,1,2,1.224178037981801,1,0
563,3,2,5,58,38,4,2,2,1.3262677976717896,1,0
564,3,2,6,47,55,4,3,3,1.2692579054200903,1,0
565,3,2,7,54,42,4,3,4,1.0811665626160902,0,0
566,3,2,8,55,45,4,2,4,0.960754584053575,1,0
567,3,2,9,54,43,3,1,4,1.5590375971050892,1,0
568,3,2,10,52,49,4,3,6,1.3045527017238785,1,0
569,3,2,11,48,44,4,2,6,1.1989369440279916,1,0
570,3,2,12,34,37,2,1,5,1.4956491642224137,1,0
571,3,2,13,60,33,3,1,6,1.6684261385344143,1,0
572,3,2,14,54,45,4,2,7,1.4030468309192656,1,0
573,3,2,15,60,37,4,2,8,1.5453377465773883,0,0
574,3,2,16,53,50,4,3,9,1.1931475488518115,1,0
575,3,2,17,48,45,4,3,10,1.337005536806828,1,0
576,3,2,18,61,33,4,2,10,1.5361233887670096,1,0
577,3,2,19,42,36,2,1,8,1.3446265394668444,1,0
578,3,2,20,47,34,2,1,9,1.4034905673579487,1,0
579,3,2,21,64,38,4,2,12,1.2005610193918983,1,0
580,3,2,22,51,30,3,1,9,1.3631214742154043,1,0
581,3,2,23,49,40,4,2,13,1.3002641597149704,0,0
582,3,2,24,54,49,4,3,13,1.121205584116069,1,0
583,3,2,25,53,38,3,1,11,1.5136505275168015,1,0
584,3,2,26,37,44,2,1,12,1.8388970487094407,1,0
585,3,2,27,51,31,3,1,12,1.0400635976711785,1,0
586,3,2,28,47,33,3,1,13,1.1421458479744615,1,0
587,3,2,29,56,43,4,3,15,1.4195425623456686,1,0
588,3,2,30,35,41,2,1,14,1.304297382604091,1,0
589,3,2,31,40,38,2,1,15,1.266295452691338,0,0
590,3,2,32,39,34,2,1,16,1.3131567512627953,1,0
591,3,2,33,58,40,3,1,16,1.3790785778728605,1,0
592,3,2,34,40,32,3,1,17,1.4187844557072822,1,0
593,3,2,35,58,42,4,2,17,1.2657028938783697,1,0
594,3,2,36,30,39,2,1,19,1.442393964911389,1,0
595,3,2,37,42,35,2,1,20,1.5625792965547591,1,0
596,3,2,38,51,34,4,2,19,1.1586661555729734,1,0
597,3,2,39,46,56,4,3,18,1.0540488048645784,1,0
598,3,2,40,59,49,4,3,19,1.1520353678424726,0,0
599,3,2,41,55,43,4,2,21,1.437217608690844,1,0
600,3,2,42,53,55,4,3,21,1.4115580371417311,1,0
601,3,2,43,62,44,4,3,22,1.5196071771979405,1,0
602,3,2,44,51,41,3,1,21,1.3928808291184396,1,0
603,3,2,45,54,36,4,2,23,1.500660313953631,1,0
604,3,2,46,50,36,2,1,23,1.331002465468373,1,0
605,3,2,47,46,46,2,1,24,1.3561643695347811,1,0
606,3,2,48,53,52,4,3,24,1.1860382084378216,1,0
607,3,2,49,40,31,2,1,25,1.4233249034787152,1,0
608,3,2,50,48,32,3,1,24,1.4908209704371984,1,0
609,3,2,51,43,39,2,1,26,1.1310698451397911,1,0
610,3,2,52,50,42,3,1,26,1.1603076390592832,1,0
611,3,2,53,40,28,2,1,28,1.5539049318576872,1,0
612,3,2,54,47,40,3,1,27,1.2415762610562524,1,0
613,3,2,55,55,46,4,2,27,1.37199552031052,1,0
614,3,2,56,52,53,4,3,27,2.165013293320044,0,0
615,3,2,57,60,45,4,3,28,1.3463093245754862,1,0
616,3,2,58,46,35,3,1,29,1.4360673073088035,1,0
617,3,2,59,57,36,4,2,29,1.2872080683573586,1,0
618,3,2,60,50,30,3,1,30,1.8832041320738424,0,0
619,3,2,61,52,42,3,1,31,2.026565135218334,0,0
620,3,2,62,41,36,2,1,32,1.5855593826872791,1,0
621,3,2,63,48,37,3,1,33,1.4653470855218984,1,0
622,3,2,64,50,38,4,2,31,1.287203972328825,0,0
623,3,2,65,51,35,4,2,32,1.218525859764668,1,0
624,3,2,66,57,43,4,2,33,1.3721713082068163,1,0
625,3,2,67,48,29,2,1,35,1.413724153631847,1,0
626,3,2,68,50,56,4,3,33,1.156866974984041,1,0
627,3,2,69,57,39,4,2,35,1.303875832986705,0,0
628,3,2,70,47,36,3,1,35,1.2868264550206732,1,0
629,3,2,71,51,39,4,2,36,1.2793454000056954,1,0
630,3,2,72,59,44,4,2,37,1.4180908615207954,0,0
631,3,2,73,56,44,4,3,36,1.577170374654088,1,0
632,3,2,74,52,53,4,3,37,1.3256445186425478,1,0
633,3,2,75,37,34,2,1,38,1.299661360830214,1,0
634,3,2,76,41,37,2,1,39,1.45493190864363,1,0
635,3,2,77,57,33,3,1,38,1.1374808126656717,1,0
636,3,2,78,46,38,3,1,39,1.5236817017084832,1,0
637,3,2,79,56,54,4,3,39,1.0591196883460725,1,0
638,3,2,80,44,50,4,3,40,1.6172551351401123,1,0
639,3,3,1,48,31,2,1,1,1.6746637075139006,0,0
640,3,3,2,38,37,2,1,2,1.8278705395523505,1,0
641,3,3,3,50,38,3,1,2,1.5646484737007995,1,0
642,3,3,4,44,28,3,1,3,1.4769791242479189,1,0
643,3,3,5,44,41,4,2,2,2.094174866972935,0,0
644,3,3,6,62,45,4,3,2,1.779505315791539,0,0
645,3,3,7,57,38,3,1,4,1.6263097478313284,0,0
646,3,3,8,38,34,2,1,5,1.6376987555240703,1,0
647,3,3,9,37,32,2,1,6,1.6359077669922044,1,0
648,3,3,10,56,42,4,2,4,1.2303568972174617,0,0
649,3,3,11,39,36,2,1,7,2.1709440014856227,1,0
650,3,3,12,44,36,2,1,8,1.5963339860818448,1,0
651,3,3,13,53,39,4,2,6,1.756834479822828,1,0
652,3,3,14,61,60,4,3,5,1.4442371778086454,1,0
653,3,3,15,50,42,4,3,6,1.0417231719502524,1,0
654,3,3,16,59,58,4,3,7,1.0039513023148174,1,0
655,3,3,17,45,42,2,1,10,1.6217245850812103,1,0
656,3,3,18,48,33,3,1,9,1.395809489610656,1,0
657,3,3,19,51,49,4,3,8,1.1440941922746788,0,0
658,3,3,20,53,36,3,1,11,1.5582378475091898,1,0
659,3,3,21,56,46,4,3,10,1.0641468808571517,1,0
660,3,3,22,48,42,4,2,10,1.137704387562735,1,0
661,3,3,23,60,40,4,2,11,1.1363270979263689,1,0
662,3,3,24,47,40,2,1,13,1.2350738155564611,1,0
663,3,3,25,49,34,4,2,13,1.0498271646574722,1,0
664,3,3,26,57,41,4,2,14,1.5073276246066598,1,0
665,3,3,27,50,32,3,1,13,1.5065773686901591,1,0
666,3,3,28,52,30,4,2,15,1.3119637829140631,1,0
667,3,3,29,33,39,2,1,16,1.5123111261445956,1,0
668,3,3,30,49,50,4,2,16,1.024407552120465,1,0
669,3,3,31,55,47,4,3,14,1.0038311521411742,1,0
670,3,3,32,53,29,3,1,15,1.0934969742293106,1,0
671,3,3,33,50,37,3,1,16,1.2507110876422305,1,0
672,3,3,34,51,33,3,1,17,1.6829568002094677,1,0
673,3,3,35,57,56,4,3,17,1.324506164010927,0,0
674,3,3,36,46,40,4,3,18,0.9964985781662108,1,0
675,3,3,37,48,42,3,1,19,1.3494974002160234,1,0
676,3,3,38,37,30,2,1,19,1.4003192171676346,1,0
677,3,3,39,55,31,3,1,20,1.0829722285843673,1,0
678,3,3,40,46,43,2,1,21,3.1862249190780867,1,0
679,3,3,41,64,52,4,3,20,1.1923699860772103,1,0
680,3,3,42,54,50,4,3,21,1.575293710855476,1,0
681,3,3,43,35,26,2,1,22,1.0446398856938686,1,0
682,3,3,44,55,42,4,2,21,1.9669317366106045,0,0
683,3,3,45,51,32,4,2,22,1.0061491630276578,0,0
684,3,3,46,53,40,4,2,23,1.327400008260156,1,0
685,3,3,47,58,43,4,3,23,1.0931235529496917,1,0
686,3,3,48,47,52,4,3,24,1.0699393480554136,1,0
687,3,3,49,54,44,3,1,24,1.3448579650867032,1,0
688,3,3,50,58,48,4,3,26,1.1115512445612694,1,0
689,3,3,51,54,43,4,2,26,1.2815688608980054,1,0
690,3,3,52,39,34,2,1,25,1.3718439672493332,1,0
691,3,3,53,56,39,3,1,26,1.0886807271954242,1,0
692,3,3,54,60,45,4,3,28,1.3253837381525957,1,0
693,3,3,55,35,30,2,1,27,1.3541934970771763,1,0
694,3,3,56,57,44,4,3,29,1.0569982868364605,1,0
695,3,3,57,40,39,2,1,28,1.2310214778681257,1,0
696,3,3,58,50,53,4,3,30,0.9509104618373384,1,0
697,3,3,59,52,49,4,3,31,1.5158893485167937,1,0
698,3,3,60,59,40,4,2,30,1.3207115347922809,1,0
699,3,3,61,51,43,4,2,31,1.7390645421473891,1,0
700,3,3,62,36,41,2,1,30,1.5951062014901254,1,0
701,3,3,63,56,46,4,2,33,1.334298403197863,1,0
702,3,3,64,55,34,3,1,31,1.4684645046691005,1,0
703,3,3,65,52,38,3,1,32,1.0735790108565195,1,0
704,3,3,66,48,38,4,2,34,1.3259445527419302,1,0
705,3,3,67,47,35,3,1,33,1.4611380747373914,1,0
706,3,3,68,54,51,4,3,35,1.3286025340084957,0,0
707,3,3,69,45,33,2,1,33,1.1921460698440571,1,0
708,3,3,70,47,40,3,1,35,1.0978251111810096,1,0
709,3,3,71,43,37,2,1,35,1.4451707310081474,1,0
710,3,3,72,37,36,2,1,36,1.1680190956858496,1,0
711,3,3,73,53,44,4,2,37,1.1932304934316562,0,0
712,3,3,74,55,51,4,3,37,1.2024540673055526,0,0
713,3,3,75,36,46,2,1,37,1.2782749711823271,1,0
714,3,3,76,49,35,3,1,38,1.666734478696526,1,0
715,3,3,77,46,35,3,1,39,1.0565412383048172,1,0
716,3,3,78,54,41,4,2,39,1.1826903876790311,0,0
717,3,3,79,54,41,3,1,40,1.570782617955956,1,0
718,3,3,80,52,34,4,2,40,1.1638892747878344,0,0
719,4,1,1,41,34,2,1,1,2.8578869202538044,1,0
720,4,1,2,30,39,2,1,2,1.299026817723643,0,0
721,4,1,3,43,36,2,1,3,1.5421438682278676,0,0
722,4,1,4,51,52,4,3,1,1.0501271987577638,1,0
723,4,1,5,55,39,4,2,3,2.2108427340026537,1,0
724,4,1,6,44,35,3,1,3,1.1490374161967338,1,0
725,4,1,7,51,50,4,3,3,1.1873806818312005,1,0
726,4,1,8,57,37,3,1,4,1.7044377398524375,1,0
727,4,1,9,41,28,2,1,5,1.58897308124142,1,0
728,4,1,10,60,53,4,3,4,1.790060781651846,1,0
729,4,1,11,49,35,3,1,6,1.2233516641990718,1,0
730,4,1,12,36,38,2,1,7,1.3880471739612403,1,0
731,4,1,13,52,46,4,3,6,1.4420461438112395,0,0
732,4,1,14,61,44,4,2,6,1.1108317088601325,1,0
733,4,1,15,40,39,2,1,8,1.265014761063867,0,0
734,4,1,16,50,50,4,3,7,1.3803346933291325,1,0
735,4,1,17,60,37,4,2,8,1.009508930535958,1,0
736,4,1,18,53,41,4,2,9,1.9748568693994453,1,0
737,4,1,19,48,32,3,1,9,1.5773372878211376,1,0
738,4,1,20,62,33,4,2,10,1.1448352321276616,1,0
739,4,1,21,54,40,4,2,11,1.2478861932086147,1,0
740,4,1,22,43,33,2,1,12,1.1120332106002024,0,0
741,4,1,23,54,38,4,2,13,0.8644381767626328,1,0
742,4,1,24,56,36,3,1,11,1.0034024344749923,1,0
743,4,1,25,48,35,4,2,14,1.3077820789876569,1,0
744,4,1,26,64,52,4,3,12,1.747944390950579,1,0
745,4,1,27,47,36,3,1,12,1.2756384940676069,1,0
746,4,1,28,54,43,4,3,14,1.6607228739649145,1,0
747,4,1,29,42,37,2,1,15,2.442661572118596,1,0
748,4,1,30,57,54,4,3,15,1.4976818184459262,1,0
749,4,1,31,49,30,3,1,15,2.8399695255466213,1,0
750,4,1,32,46,51,4,3,16,1.0800828216997616,1,0
751,4,1,33,43,42,2,1,16,2.647279707898633,0,0
752,4,1,34,47,43,3,1,17,1.329639511932328,1,0
753,4,1,35,35,35,2,1,18,2.029815333960869,1,0
754,4,1,36,48,26,2,1,19,2.2869121302865096,1,0
755,4,1,37,59,55,4,3,18,2.231410600588788,1,0
756,4,1,38,50,38,3,1,19,3.066052899526768,1,0
757,4,1,39,38,42,2,1,20,1.5163931600418437,0,0
758,4,1,40,44,44,4,3,19,2.9943037894754525,1,0
759,4,1,41,39,33,2,1,21,2.035299916336953,1,0
760,4,1,42,50,36,2,1,22,1.9635596810148848,0,0
761,4,1,43,57,45,4,2,21,1.557025081690881,1,0
762,4,1,44,45,37,3,1,22,1.3806091272490448,1,0
763,4,1,45,53,32,4,2,22,1.9304514813466085,1,0
764,4,1,46,53,31,3,1,23,1.832693613301672,1,0
765,4,1,47,40,40,2,1,25,2.452681482231128,1,0
766,4,1,48,40,34,3,1,25,1.5144724639358174,1,0
767,4,1,49,55,51,4,3,23,1.8734702612964609,1,0
768,4,1,50,42,46,2,1,27,1.83115316518888,0,0
769,4,1,51,45,41,3,1,27,1.416073226069784,1,0
770,4,1,52,52,34,3,1,28,1.912313242426535,1,0
771,4,1,53,59,37,4,2,25,1.2803417589784658,1,0
772,4,1,54,49,48,4,3,25,1.1034789960776834,1,0
773,4,1,55,52,53,4,3,26,1.2071269533371378,1,0
774,4,1,56,56,45,4,2,27,1.1989161225483258,1,0
775,4,1,57,46,40,2,1,30,1.7706616485756967,1,0
776,4,1,58,57,47,4,3,28,1.3097655808651325,1,0
777,4,1,59,60,29,3,1,31,1.9711496221243576,1,0
778,4,1,60,38,41,2,1,31,3.0780133032185404,1,0
779,4,1,61,51,56,4,3,29,1.113836828553758,0,0
780,4,1,62,47,42,4,2,30,1.3609147387742269,1,0
781,4,1,63,58,37,4,2,31,1.038874725352798,1,0
782,4,1,64,42,31,3,1,33,2.5093548174590983,1,0
783,4,1,65,53,58,4,3,32,1.4870683255139738,1,0
784,4,1,66,56,34,4,2,32,1.07682374822798,1,0
785,4,1,67,56,44,4,2,33,1.0310827134962892,1,0
786,4,1,68,52,39,4,2,34,1.0740497128172135,1,0
787,4,1,69,50,48,4,3,34,1.55337790950216,1,0
788,4,1,70,55,49,4,3,35,2.029280460885275,1,0
789,4,1,71,49,54,4,3,36,1.8521040104551505,1,0
790,4,1,72,51,30,3,1,36,2.463747586329191,1,0
791,4,1,73,54,46,4,2,37,1.2181090888479955,1,0
792,4,1,74,48,47,4,2,38,1.240690494858427,1,0
793,4,1,75,34,39,2,1,37,1.9888977143145887,0,0
794,4,1,76,50,38,3,1,37,2.231615402024545,1,0
795,4,1,77,55,33,3,1,38,1.1187841485043464,1,0
796,4,1,78,46,44,3,1,39,1.9141622580300464,1,0
797,4,1,79,58,40,4,2,39,1.539376318194627,1,0
798,4,1,80,36,32,2,1,40,2.267901778597661,0,0
799,4,2,1,51,44,4,2,1,2.9375403416142944,1,0
800,4,2,2,50,46,3,1,1,2.16737362983622,1,0
801,4,2,3,37,32,2,1,2,3.330618804116966,1,0
802,4,2,4,60,38,4,2,2,1.3307413436414208,1,0
803,4,2,5,50,51,4,3,2,1.9835861891460809,1,0
804,4,2,6,56,56,4,3,3,2.4962226082352568,0,0
805,4,2,7,40,38,3,1,3,1.534530033619376,0,0
806,4,2,8,46,51,4,3,5,2.6497318637248104,0,0
807,4,2,9,57,49,4,3,6,1.9727102090437256,1,0
808,4,2,10,42,33,3,1,5,1.5155715649580088,1,0
809,4,2,11,50,52,4,3,7,2.4478894700314413,1,0
810,4,2,12,56,55,4,3,8,1.4699663818446425,0,0
811,4,2,13,49,38,3,1,7,1.3768588716739032,1,0
812,4,2,14,54,40,4,2,6,1.4129571722660332,1,0
813,4,2,15,64,39,4,2,7,2.7695840517026227,1,0
814,4,2,16,41,36,2,1,6,1.6260377032613178,1,0
815,4,2,17,47,34,4,2,9,1.4960082494017115,1,0
816,4,2,18,44,37,2,1,7,1.5001186141635117,1,0
817,4,2,19,61,50,4,2,10,1.5178318901089367,1,0
818,4,2,20,53,29,3,1,9,1.3767923112081917,1,0
819,4,2,21,39,34,2,1,9,1.6852597923261785,1,0
820,4,2,22,62,42,4,2,12,1.528635507038416,1,0
821,4,2,23,40,40,2,1,11,1.4300946148487128,1,0
822,4,2,24,53,38,4,2,13,1.3558056256897544,1,0
823,4,2,25,42,35,2,1,12,1.2551231931811344,1,0
824,4,2,26,46,39,2,1,13,1.277079954821602,1,0
825,4,2,27,48,35,3,1,12,1.049185794836376,1,0
826,4,2,28,55,58,4,3,14,2.596661327039328,0,0
827,4,2,29,51,35,4,2,16,1.2661186407876812,1,0
828,4,2,30,43,37,3,1,14,1.2445441751569888,1,0
829,4,2,31,52,43,4,2,17,2.842687923233825,1,0
830,4,2,32,58,54,4,3,16,1.4246448487156158,0,0
831,4,2,33,46,38,3,1,15,1.1009295595704316,1,0
832,4,2,34,34,32,2,1,17,1.4463715500787655,1,0
833,4,2,35,37,40,2,1,18,1.2630595900482149,1,0
834,4,2,36,43,28,2,1,19,1.5497375640297832,1,0
835,4,2,37,59,60,4,3,18,1.8338524480768683,1,0
836,4,2,38,53,36,4,2,20,1.2577743477322656,1,0
837,4,2,39,45,26,3,1,18,1.2891966902716376,1,0
838,4,2,40,52,51,4,3,20,2.491628912091983,0,0
839,4,2,41,54,45,4,3,21,1.6413728932348022,1,0
840,4,2,42,59,40,4,2,22,1.0673916182277026,1,0
841,4,2,43,48,57,4,3,22,1.2757610335920615,1,0
842,4,2,44,50,36,3,1,21,1.1746130191586417,1,0
843,4,2,45,50,42,3,1,22,1.1235969821827894,1,0
844,4,2,46,48,31,2,1,22,1.3700127011015866,1,0
845,4,2,47,47,39,3,1,23,1.287373616181867,1,0
846,4,2,48,30,33,2,1,24,1.450051149158753,1,0
847,4,2,49,49,32,4,2,25,1.3431960014568176,1,0
848,4,2,50,41,34,2,1,25,1.29729112557834,1,0
849,4,2,51,39,41,2,1,26,1.214588552213172,1,0
850,4,2,52,55,55,4,3,25,1.1450434469170432,0,0
851,4,2,53,57,43,4,2,27,1.6784422939526848,1,0
852,4,2,54,46,39,3,1,26,1.366442329452184,1,0
853,4,2,55,37,33,2,1,28,1.4479430597402825,1,0
854,4,2,56,44,41,4,2,29,1.8189016021278803,1,0
855,4,2,57,55,56,4,3,28,1.5279425955232,0,0
856,4,2,58,47,30,2,1,30,1.621015972121313,1,0
857,4,2,59,51,36,4,2,31,1.1415399770685326,1,0
858,4,2,60,49,48,4,3,29,1.4635605343537463,1,0
859,4,2,61,42,37,2,1,31,1.8323167786638803,1,0
860,4,2,62,57,48,4,3,30,1.896443520712637,1,0
861,4,2,63,48,54,4,3,31,1.1960031634989718,0,0
862,4,2,64,33,36,2,1,32,1.109424381678764,1,0
863,4,2,65,54,47,4,3,32,1.4507918476738269,0,0
864,4,2,66,52,41,3,1,32,1.5973641372893326,1,0
865,4,2,67,44,42,3,1,33,1.4500091648642408,1,0
866,4,2,68,56,35,4,2,35,1.6799359790729795,1,0
867,4,2,69,50,35,3,1,34,1.4321689120297378,1,0
868,4,2,70,54,45,4,2,36,1.2939207766612526,1,0
869,4,2,71,53,52,4,3,36,1.4016511091540451,0,0
870,4,2,72,58,47,4,3,37,1.2166532919945894,1,0
871,4,2,73,53,30,3,1,36,1.060617810830081,1,0
872,4,2,74,52,45,4,2,38,1.8775352284064863,1,0
873,4,2,75,49,44,3,1,37,1.2530714241584064,1,0
874,4,2,76,38,34,2,1,37,1.2890652760179364,1,0
875,4,2,77,53,36,3,1,38,1.033158034684675,1,0
876,4,2,78,46,31,2,1,39,1.2665879774049245,1,0
877,4,2,79,60,40,4,2,40,1.587605007667662,1,0
878,4,2,80,44,43,3,1,40,1.3104530310101836,1,0
879,4,3,1,54,55,4,3,1,1.335438123171116,1,0
880,4,3,2,40,35,2,1,1,1.3109087141983764,0,0
881,4,3,3,50,45,4,3,2,0.9599428877063474,0,0
882,4,3,4,49,33,4,2,2,0.8086212528596661,0,0
883,4,3,5,38,41,2,1,2,1.015139263266974,1,0
884,4,3,6,60,50,4,3,3,1.6599459938624932,0,0
885,4,3,7,56,43,4,2,4,1.2616396334469755,1,0
886,4,3,8,53,34,4,2,5,1.1434258569333906,1,0
887,4,3,9,58,46,4,3,5,1.0819724562552435,1,0
888,4,3,10,50,36,3,1,4,2.0802705563455675,0,0
889,4,3,11,60,37,3,1,5,1.3306682977963646,1,0
890,4,3,12,53,38,3,1,6,1.122756272299739,1,0
891,4,3,13,50,48,4,3,8,1.0294060724318117,0,0
892,4,3,14,64,40,4,2,7,1.2522406130119634,1,0
893,4,3,15,44,37,4,2,8,1.1332735085597958,1,0
894,4,3,16,57,46,4,2,9,2.1125950491968983,1,0
895,4,3,17,52,45,4,3,10,1.0414531753940537,0,0
896,4,3,18,51,44,4,2,11,3.777743682130677,1,0
897,4,3,19,59,52,4,3,12,1.9228724629792848,1,0
898,4,3,20,32,36,2,1,8,2.301824746635248,0,0
899,4,3,21,48,35,3,1,9,2.188593447650419,1,0
900,4,3,22,43,37,2,1,9,2.477713678721557,0,0
901,4,3,23,55,50,4,3,13,1.6684561760775978,1,0
902,4,3,24,47,28,3,1,11,1.7318592863975937,1,0
903,4,3,25,54,55,4,3,15,1.0203446330251609,1,0
904,4,3,26,30,36,2,1,11,1.3552161388979584,0,0
905,4,3,27,51,43,4,2,15,1.0891913654359089,1,0
906,4,3,28,61,37,4,2,16,1.0386699239206791,1,0
907,4,3,29,49,42,3,1,13,1.968096374092056,1,0
908,4,3,30,55,58,4,3,17,1.441648146359512,1,0
909,4,3,31,48,50,4,3,18,1.6093211276220245,1,0
910,4,3,32,53,31,3,1,15,0.9502533905724704,1,0
911,4,3,33,57,47,4,3,20,1.2159897353521956,0,0
912,4,3,34,53,38,4,2,18,2.348327642699587,1,0
913,4,3,35,53,42,4,2,19,1.0626729932100716,1,0
914,4,3,36,56,32,3,1,16,2.1841257043888618,1,0
915,4,3,37,60,53,4,3,22,1.2619454702526127,1,0
916,4,3,38,47,40,4,3,23,1.512138410269472,1,0
917,4,3,39,39,37,2,1,15,1.85352669774511,0,0
918,4,3,40,43,39,3,1,19,1.5919549901063874,1,0
919,4,3,41,58,45,4,2,22,2.0471882981910308,1,0
920,4,3,42,48,41,2,1,17,1.0446559284719117,0,0
921,4,3,43,52,41,4,2,23,1.3188618365147704,1,0
922,4,3,44,56,52,4,3,26,1.2725982167939949,1,0
923,4,3,45,54,29,3,1,21,1.2151053344969114,1,0
924,4,3,46,36,32,2,1,19,0.9264226958221116,0,0
925,4,3,47,42,40,2,1,20,1.6737441490804486,0,0
926,4,3,48,35,30,2,1,21,0.8530457557117188,1,0
927,4,3,49,59,49,4,3,27,1.3194137763766776,1,0
928,4,3,50,38,39,2,1,22,0.9880105827724036,0,0
929,4,3,51,56,31,3,1,24,1.4266338119650754,1,0
930,4,3,52,49,44,4,2,27,1.2709475172432576,1,0
931,4,3,53,50,38,2,1,24,1.4571495668278658,0,0
932,4,3,54,52,39,4,2,29,1.3530227155515604,1,0
933,4,3,55,47,33,3,1,26,2.1135890188197664,1,0
934,4,3,56,55,37,4,2,30,1.1195620526159469,1,0
935,4,3,57,41,38,2,1,27,1.7635379720632045,0,0
936,4,3,58,42,36,2,1,28,1.0106397757826926,1,0
937,4,3,59,39,33,2,1,29,0.9178684812995924,0,0
938,4,3,60,54,52,4,3,31,1.265145492643569,0,0
939,4,3,61,45,35,2,1,30,0.8320962757879897,0,0
940,4,3,62,46,40,3,1,29,0.7521861699624424,1,0
941,4,3,63,51,34,3,1,30,0.8836758580400783,1,0
942,4,3,64,51,40,4,2,33,1.3804442620967166,1,0
943,4,3,65,48,44,4,3,33,3.848502918592203,1,0
944,4,3,66,57,51,4,3,34,1.380537105411349,1,0
945,4,3,67,54,44,4,3,35,1.2178909753238258,1,0
946,4,3,68,62,40,4,2,36,1.0951746393020585,1,0
947,4,3,69,49,39,3,1,33,1.2615867264103144,1,0
948,4,3,70,56,46,4,2,37,1.0373738721827976,1,0
949,4,3,71,54,46,3,1,34,1.1436269036712474,0,0
950,4,3,72,35,34,2,1,34,1.7549137837158924,0,0
951,4,3,73,48,26,3,1,35,1.1038561720488358,1,0
952,4,3,74,47,43,2,1,36,1.4856722624099348,0,0
953,4,3,75,51,44,3,1,37,1.3964245765819214,1,0
954,4,3,76,57,33,3,1,38,1.2080492424574911,1,0
955,4,3,77,42,30,3,1,39,1.2764061581056012,1,0
956,4,3,78,41,42,2,1,38,1.5301425042489427,0,0
957,4,3,79,46,36,4,2,39,1.2696746763376725,1,0
958,5,1,1,55,51,4,3,1,1.1145735733980473,1,0
959,5,1,2,54,37,4,2,1,1.0501155917636424,1,0
960,5,1,3,54,50,4,2,2,0.8129826634540223,1,0
961,5,1,4,64,32,4,2,3,0.8329867116399328,1,0
962,5,1,5,42,34,3,1,1,1.2333475668383471,0,0
963,5,1,6,47,37,2,1,3,1.5921213281735618,1,0
964,5,1,7,50,40,3,1,3,1.378170240232066,1,0
965,5,1,8,50,26,3,1,4,1.37670524731584,1,0
966,5,1,9,56,39,4,2,5,1.6487259647465182,0,0
967,5,1,10,58,34,3,1,5,1.4087787618354923,1,0
968,5,1,11,52,46,4,3,6,2.4624721857853733,1,0
969,5,1,12,54,53,4,3,7,1.0461595647620925,1,0
970,5,1,13,48,44,4,3,8,1.2108507779112188,1,0
971,5,1,14,56,46,3,1,7,1.781553240647554,1,0
972,5,1,15,41,34,2,1,6,1.318175162225998,1,0
973,5,1,16,42,36,2,1,7,1.1418008695072783,1,0
974,5,1,17,40,30,2,1,8,1.4303228957705871,1,0
975,5,1,18,57,47,4,3,9,1.0808210513878294,1,0
976,5,1,19,49,49,4,3,10,1.074394470163497,0,0
977,5,1,20,54,41,3,1,11,0.851128798886748,1,0
978,5,1,21,52,38,4,2,10,1.5165765723331788,0,0
979,5,1,22,54,44,4,2,11,1.068259044334809,1,0
980,5,1,23,56,33,4,2,12,1.1719687327095016,1,0
981,5,1,24,44,37,2,1,11,1.681326835755499,1,0
982,5,1,25,48,60,4,3,13,1.0411286862481577,0,0
983,5,1,26,47,33,3,1,13,1.18465737358747,1,0
984,5,1,27,49,36,3,1,14,1.0605862634047298,1,0
985,5,1,28,41,42,2,1,13,1.789004156388728,1,0
986,5,1,29,57,35,3,1,15,1.3721351657350171,1,0
987,5,1,30,39,40,2,1,15,1.5928330034366809,0,0
988,5,1,31,47,40,4,3,16,1.7964093337659506,0,0
989,5,1,32,60,40,4,2,15,1.1719605407633935,1,0
990,5,1,33,50,53,4,3,17,1.0217987669075228,1,0
991,5,1,34,59,50,4,3,18,1.04286230670823,1,0
992,5,1,35,43,32,3,1,18,1.3271873262410736,1,0
993,5,1,36,56,44,4,3,20,1.4651973729796737,0,0
994,5,1,37,34,38,2,1,17,1.894518803415849,1,0
995,5,1,38,44,40,4,2,18,1.85644400617548,1,0
996,5,1,39,53,46,4,2,19,1.394655506505842,1,0
997,5,1,40,55,52,4,3,22,1.3600042598118307,1,0
998,5,1,41,36,39,2,1,19,1.9577490172223408,0,0
999,5,1,42,54,32,3,1,21,1.5203462325753208,0,0
1000,5,1,43,42,29,2,1,20,2.199173500967845,0,0
1001,5,1,44,51,48,4,3,23,1.596922490884026,1,0
1002,5,1,45,59,38,4,2,22,1.120567688168194,1,0
1003,5,1,46,56,41,3,1,23,1.895484428988312,1,0
1004,5,1,47,62,47,4,3,25,1.67691752110386,1,0
1005,5,1,48,52,45,4,2,24,1.088810928874409,1,0
1006,5,1,49,37,38,2,1,23,1.6612497427213384,1,0
1007,5,1,50,52,31,3,1,25,1.2449992439514972,1,0
1008,5,1,51,45,33,2,1,24,1.6204135771940855,0,0
1009,5,1,52,55,48,4,3,27,0.9840953378616176,1,0
1010,5,1,53,50,42,4,2,26,0.9249358382940044,0,0
1011,5,1,54,35,42,2,1,26,0.9913656894705128,1,0
1012,5,1,55,55,33,3,1,28,1.263618170690279,1,0
1013,5,1,56,40,38,2,1,27,2.3716296544334905,1,0
1014,5,1,57,53,30,4,2,28,1.062784094109702,1,0
1015,5,1,58,61,50,4,3,30,1.3111468143397358,1,0
1016,5,1,59,48,30,3,1,30,1.7572658289718674,1,0
1017,5,1,60,57,51,4,3,31,1.2991391289297098,1,0
1018,5,1,61,43,43,2,1,29,1.3777777095119743,1,0
1019,5,1,62,46,37,4,2,31,1.3687733961114643,1,0
1020,5,1,63,60,53,4,3,33,1.401457210567969,1,0
1021,5,1,64,53,43,4,2,32,1.378533416481332,1,0
1022,5,1,65,38,39,2,1,31,1.4355124932289982,0,0
1023,5,1,66,49,35,3,1,33,1.8299577398011024,1,0
1024,5,1,67,49,51,4,3,35,1.4888854073124094,1,0
1025,5,1,68,45,35,3,1,34,1.105289027195795,1,0
1026,5,1,69,57,55,4,3,36,1.1684929585107966,0,0
1027,5,1,70,58,48,4,2,35,1.5064516690581513,1,0
1028,5,1,71,34,37,2,1,34,1.8730852607441195,0,0
1029,5,1,72,51,39,4,2,36,1.1987918928416548,1,0
1030,5,1,73,43,44,2,1,35,1.4892642847908064,0,0
1031,5,1,74,46,28,3,1,37,1.7107140748212255,1,0
1032,5,1,75,52,39,3,1,38,1.3259899368777042,1,0
1033,5,1,76,36,36,2,1,37,1.7755550299061724,1,0
1034,5,1,77,58,41,4,2,38,1.1130973165572868,1,0
1035,5,1,78,35,36,2,1,39,1.675747096894156,1,0
1036,5,1,79,51,46,4,2,40,1.465781049094403,1,0
1037,5,1,80,45,31,3,1,40,1.5827603238139998,1,0
1038,5,2,1,42,33,2,1,1,1.3123684382089778,0,0
1039,5,2,2,33,42,2,1,2,1.10620481843398,1,0
1040,5,2,3,55,53,4,3,1,1.184792199356707,1,0
1041,5,2,4,51,35,4,2,2,1.2805362447506925,1,0
1042,5,2,5,42,41,3,1,2,1.7790226121587691,1,0
1043,5,2,6,57,52,4,3,3,0.9970061852600338,1,0
1044,5,2,7,43,32,2,1,4,1.379829109190723,1,0
1045,5,2,8,44,46,4,3,4,1.4115131649678003,1,0
1046,5,2,9,53,46,4,2,5,1.793385481892983,0,0
1047,5,2,10,55,47,4,3,5,1.2712220027460717,0,0
1048,5,2,11,50,36,3,1,5,1.3600482915189789,1,0
1049,5,2,12,52,36,3,1,6,1.380766745616711,1,0
1050,5,2,13,59,38,4,2,6,1.6982374005319798,1,0
1051,5,2,14,47,41,3,1,7,1.3537012404312918,1,0
1052,5,2,15,54,37,4,2,7,1.6280505183622154,1,0
1053,5,2,16,42,34,2,1,8,2.57035976635143,1,0
1054,5,2,17,54,54,4,3,9,2.078103373477461,1,0
1055,5,2,18,40,42,2,1,9,1.4422063366746445,1,0
1056,5,2,19,46,49,4,3,10,1.6947926874599943,0,0
1057,5,2,20,50,28,3,1,10,1.2941533061157315,1,0
1058,5,2,21,55,30,3,1,11,1.184481246758878,1,0
1059,5,2,22,43,38,2,1,11,1.3880705476694857,0,0
1060,5,2,23,55,35,3,1,13,1.4003366206925418,1,0
1061,5,2,24,48,49,4,3,12,1.1852857640706134,0,0
1062,5,2,25,57,60,4,3,13,1.2600516024294848,0,0
1063,5,2,26,39,44,2,1,12,1.4008728517901543,1,0
1064,5,2,27,47,29,2,1,13,2.517961011118132,0,0
1065,5,2,28,40,40,2,1,14,1.5405424501495872,1,0
1066,5,2,29,61,44,4,2,13,1.4444058740346009,1,0
1067,5,2,30,48,37,4,2,14,1.3649655067893036,1,0
1068,5,2,31,56,49,4,3,15,1.0496698133983955,0,0
1069,5,2,32,51,53,4,3,16,1.4093678992467176,0,0
1070,5,2,33,56,50,4,3,17,1.0921273014673716,0,0
1071,5,2,34,52,41,4,2,17,1.4468067967209208,1,0
1072,5,2,35,48,31,2,1,17,2.043114891694131,1,0
1073,5,2,36,43,38,3,1,18,1.097290957764926,1,0
1074,5,2,37,60,39,4,2,18,1.2463099552278436,1,0
1075,5,2,38,38,34,2,1,19,1.4965807160915574,1,0
1076,5,2,39,50,45,4,2,20,1.864062856797318,1,0
1077,5,2,40,56,40,3,1,20,1.1894220138738092,1,0
1078,5,2,41,47,32,4,2,21,1.2811448380334696,1,0
1079,5,2,42,62,44,4,2,22,1.113607606494952,1,0
1080,5,2,43,51,38,3,1,21,1.1403133487410742,1,0
1081,5,2,44,40,36,3,1,22,1.0440347789044608,1,0
1082,5,2,45,50,46,3,1,23,1.0046079693292995,1,0
1083,5,2,46,53,36,4,2,23,1.1758667334306665,1,0
1084,5,2,47,58,44,4,3,24,1.0367640859649327,0,0
1085,5,2,48,58,41,4,2,24,1.3525902078263243,1,0
1086,5,2,49,49,48,4,3,25,1.0436330322445428,0,0
1087,5,2,50,59,51,4,3,26,1.6323745002491703,1,0
1088,5,2,51,39,35,2,1,24,1.8079091185563807,1,0
1089,5,2,52,52,46,4,2,27,1.2590880248435496,1,0
1090,5,2,53,53,37,3,1,26,1.3766072853022706,1,0
1091,5,2,54,56,48,4,3,28,1.3669226990959942,1,0
1092,5,2,55,57,30,3,1,27,1.2448241411166237,1,0
1093,5,2,56,51,37,4,2,28,1.094980146479429,1,0
1094,5,2,57,45,32,3,1,28,1.1637982910915523,1,0
1095,5,2,58,55,46,4,3,31,1.0835892462964694,0,0
1096,5,2,59,49,40,4,2,30,1.3041683007886604,1,0
1097,5,2,60,54,50,4,2,31,1.2944178376883428,1,0
1098,5,2,61,34,37,2,1,29,1.6631352555050398,1,0
1099,5,2,62,45,33,2,1,30,1.3012113498043618,0,0
1100,5,2,63,38,37,2,1,31,1.855256856743836,0,0
1101,5,2,64,52,39,3,1,31,1.258543260469196,1,0
1102,5,2,65,64,45,4,3,33,1.2285395775070356,0,0
1103,5,2,66,30,31,2,1,32,1.2643434991969116,0,0
1104,5,2,67,54,43,3,1,33,1.6007925024587166,1,0
1105,5,2,68,54,48,4,3,35,1.0440730079835705,1,0
1106,5,2,69,52,42,4,2,35,1.3742336691011587,1,0
1107,5,2,70,50,34,4,2,36,1.6360980807976375,1,0
1108,5,2,71,60,51,4,3,37,1.3206409378135504,1,0
1109,5,2,72,58,26,3,1,35,1.0663895741117813,1,0
1110,5,2,73,57,41,4,2,37,1.100397411754784,1,0
1111,5,2,74,35,39,2,1,36,1.886906096752682,0,0
1112,5,2,75,47,34,3,1,37,1.0603077372588814,1,0
1113,5,2,76,43,35,2,1,37,1.8901774136456884,0,0
1114,5,2,77,36,39,2,1,38,1.223896109747329,0,0
1115,5,2,78,53,56,4,3,39,1.499027035809377,1,0
1116,5,2,79,40,33,2,1,39,1.3328493258886738,0,0
1117,5,2,80,44,36,3,1,40,1.7482758514761372,1,0
1118,5,3,1,41,40,2,1,1,1.3747876494135198,1,0
1119,5,3,2,57,31,3,1,1,1.5149958681877251,0,0
1120,5,3,3,39,30,2,1,2,1.470954262662417,1,0
1121,5,3,4,34,43,2,1,3,1.2396628741371387,1,0
1122,5,3,5,50,36,3,1,3,1.0700691229531003,1,0
1123,5,3,6,52,46,4,2,2,1.5330246335215634,1,0
1124,5,3,7,56,42,4,2,3,1.1636737052549506,1,0
1125,5,3,8,40,39,3,1,4,1.1047971691359637,1,0
1126,5,3,9,55,39,4,2,4,2.410912422299589,1,0
1127,5,3,10,52,39,4,2,5,2.2922288815916545,1,0
1128,5,3,11,43,34,2,1,7,1.933699854626866,0,0
1129,5,3,12,57,51,4,3,4,1.2635154300414797,0,0
1130,5,3,13,53,48,4,3,5,1.0470739906759263,1,0
1131,5,3,14,33,37,2,1,8,1.3974875303229055,1,0
1132,5,3,15,53,60,4,3,6,1.48416616405666,1,0
1133,5,3,16,53,33,3,1,8,1.0604340297513772,1,0
1134,5,3,17,41,37,2,1,10,1.2678701317236118,1,0
1135,5,3,18,50,36,3,1,9,1.140413017411447,1,0
1136,5,3,19,59,45,4,3,8,1.083470463087906,0,0
1137,5,3,20,60,32,4,2,10,1.11749400196004,1,0
1138,5,3,21,46,51,4,3,10,1.1797432302955713,1,0
1139,5,3,22,57,46,4,3,11,1.1095911638949474,0,0
1140,5,3,23,50,42,4,2,12,0.9973478576521302,1,0
1141,5,3,24,54,56,4,3,12,1.570931837210992,0,0
1142,5,3,25,54,28,3,1,12,1.2448821673970087,1,0
1143,5,3,26,60,40,4,2,13,1.5856292113858217,1,0
1144,5,3,27,49,43,4,3,14,1.3157155305980268,0,0
1145,5,3,28,57,50,4,3,15,1.4045394300528642,0,0
1146,5,3,29,49,46,4,2,15,1.1255869614269614,1,0
1147,5,3,30,44,42,3,1,14,1.1837299770932077,1,0
1148,5,3,31,56,30,3,1,15,1.0765574851002384,1,0
1149,5,3,32,55,35,4,2,16,1.4586199234263404,1,0
1150,5,3,33,46,35,3,1,16,1.517665759749434,1,0
1151,5,3,34,40,40,2,1,16,1.4059982790085996,0,0
1152,5,3,35,38,39,2,1,17,1.1037066163953568,0,0
1153,5,3,36,49,33,3,1,18,0.9510391312169304,0,0
1154,5,3,37,47,39,2,1,18,1.5440813705945402,1,0
1155,5,3,38,52,51,4,3,19,1.3436992163378818,1,0
1156,5,3,39,55,38,4,2,19,1.09822688753502,1,0
1157,5,3,40,44,34,2,1,20,1.7452468796363974,0,0
1158,5,3,41,51,53,4,3,21,1.73827655803143,1,0
1159,5,3,42,40,33,2,1,21,1.3234091327221904,0,0
1160,5,3,43,48,44,3,1,22,1.1220685208454595,1,0
1161,5,3,44,42,26,2,1,22,1.1947604316746947,1,0
1162,5,3,45,45,46,2,1,23,1.0180973728774916,1,0
1163,5,3,46,54,53,4,3,22,1.2794904063784998,1,0
1164,5,3,47,64,42,4,3,23,1.0057545003646735,1,0
1165,5,3,48,44,38,4,2,24,0.9605684117905184,1,0
1166,5,3,49,47,35,3,1,25,1.1535518739592592,1,0
1167,5,3,50,50,54,4,3,25,1.2427229071026886,1,0
1168,5,3,51,54,43,4,2,25,0.9159977431190782,1,0
1169,5,3,52,51,34,4,2,26,0.8766965433742371,1,0
1170,5,3,53,58,52,4,3,27,0.9436312231900956,1,0
1171,5,3,54,51,45,4,3,28,0.9678373980741526,1,0
1172,5,3,55,50,37,3,1,27,0.9719449760677892,1,0
1173,5,3,56,41,36,2,1,27,1.1974559230666273,0,0
1174,5,3,57,61,36,4,2,29,1.0504866186274742,1,0
1175,5,3,58,47,38,3,1,29,0.7748768050860235,1,0
1176,5,3,59,43,32,2,1,29,1.6222376503865237,1,0
1177,5,3,60,35,38,2,1,30,1.0387588246885568,1,0
1178,5,3,61,62,49,4,3,31,1.0443627980548629,1,0
1179,5,3,62,48,48,4,2,31,0.9420682682603,1,0
1180,5,3,63,54,52,4,3,32,1.1237564029443092,1,0
1181,5,3,64,48,42,3,1,32,1.923357523465711,1,0
1182,5,3,65,55,29,3,1,33,0.9651992503004294,1,0
1183,5,3,66,52,38,3,1,34,0.9212999798273812,1,0
1184,5,3,67,36,34,2,1,33,1.107317216363299,0,0
1185,5,3,68,58,37,4,2,33,1.0576443309864771,1,0
1186,5,3,69,48,40,4,2,34,1.0446457615043985,1,0
1187,5,3,70,47,31,3,1,35,0.9221283903134464,1,0
1188,5,3,71,56,44,4,2,35,0.8594060771265504,1,0
1189,5,3,72,59,37,4,2,36,0.8117617222469562,1,0
1190,5,3,73,45,36,2,1,36,1.732692723197033,1,0
1191,5,3,74,53,37,4,2,38,0.8332352006527799,1,0
1192,5,3,75,55,32,3,1,37,0.8914939275500728,1,0
1193,5,3,76,30,41,2,1,38,1.519858811820086,1,0
1194,5,3,77,50,41,2,1,39,1.0808964855532397,1,0
1195,5,3,78,56,49,4,3,38,1.0922177541988276,1,0
1196,5,3,79,58,35,3,1,39,0.8097058852645205,1,0
1197,5,3,80,47,44,4,3,40,0.9427891594614266,1,0
1198,6,1,1,51,44,4,2,1,2.1333330147554648,0,0
1199,6,1,2,34,40,2,1,1,1.0745868073961446,0,0
1200,6,1,3,40,30,2,1,2,1.184881524886464,0,0
1201,6,1,4,47,43,3,1,2,1.5641479789478585,0,0
1202,6,1,5,45,35,2,1,4,1.2832886243479606,1,0
1203,6,1,6,53,37,3,1,3,1.135470444453631,1,0
1204,6,1,7,55,44,4,3,2,1.2710374862571143,0,0
1205,6,1,8,56,35,3,1,5,1.0067440651509971,1,0
1206,6,1,9,56,44,4,3,4,1.2438028362756768,1,0
1207,6,1,10,42,33,2,1,6,1.181809183028804,1,0
1208,6,1,11,40,37,2,1,7,1.1024109401447504,1,0
1209,6,1,12,57,32,3,1,7,1.1448912460614338,1,0
1210,6,1,13,53,41,3,1,8,1.1632949185355983,1,0
1211,6,1,14,47,42,4,3,6,0.9498383274391244,1,0
1212,6,1,15,59,39,4,2,6,1.5402894575427126,1,0
1213,6,1,16,50,45,4,2,7,1.1730502268673035,1,0
1214,6,1,17,48,39,3,1,10,1.1867772905434322,1,0
1215,6,1,18,59,37,4,2,8,1.2040006321494727,1,0
1216,6,1,19,42,36,2,1,11,1.3769290029958938,1,0
1217,6,1,20,50,33,3,1,11,1.2157278234841442,1,0
1218,6,1,21,52,45,4,3,9,1.0855470226000534,1,0
1219,6,1,22,38,39,2,1,12,1.3737245651157082,1,0
1220,6,1,23,54,44,3,1,13,1.1221918928540615,0,0
1221,6,1,24,51,51,4,3,11,0.9212970532347526,1,0
1222,6,1,25,46,26,2,1,14,1.0017786883036024,0,0
1223,6,1,26,50,37,3,1,15,1.1305432969460298,1,0
1224,6,1,27,60,50,4,2,11,1.015828994701451,1,0
1225,6,1,28,55,38,4,2,12,1.0116596073232813,1,0
1226,6,1,29,51,41,4,2,13,1.2343035279878904,1,0
1227,6,1,30,52,52,4,3,14,1.119367700372095,0,0
1228,6,1,31,55,49,4,3,15,1.0852070545420247,1,0
1229,6,1,32,50,34,3,1,17,1.2015300610611348,1,0
1230,6,1,33,50,47,4,3,16,1.5492460457380732,1,0
1231,6,1,34,35,38,2,1,17,1.7211650937454124,1,0
1232,6,1,35,54,55,4,3,17,0.9477155750766996,1,0
1233,6,1,36,64,35,4,2,17,1.085184867871476,1,0
1234,6,1,37,54,48,4,3,19,1.1163223238522733,0,0
1235,6,1,38,44,44,4,2,18,0.913430683892102,1,0
1236,6,1,39,37,34,2,1,19,1.149864814910302,1,0
1237,6,1,40,57,43,4,2,20,0.9449473612709198,1,0
1238,6,1,41,49,38,3,1,21,0.9684133492758064,1,0
1239,6,1,42,53,53,4,3,21,1.229373991146531,1,0
1240,6,1,43,57,46,4,3,22,1.2630635968962451,1,0
1241,6,1,44,40,31,2,1,21,1.2620880660630291,1,0
1242,6,1,45,58,36,4,2,22,1.0868396521539123,1,0
1243,6,1,46,56,30,3,1,23,1.0067792224903087,1,0
1244,6,1,47,37,42,2,1,23,0.9743791742940856,1,0
1245,6,1,48,46,43,4,3,24,1.241683838580684,1,0
1246,6,1,49,51,28,3,1,25,1.1209900579823395,1,0
1247,6,1,50,41,39,2,1,25,1.6767794648369545,1,0
1248,6,1,51,48,42,3,1,27,1.1545212850382995,1,0
1249,6,1,52,32,32,2,1,26,1.8035882331457744,1,0
1250,6,1,53,51,36,3,1,28,1.0426434632777273,1,0
1251,6,1,54,43,36,2,1,28,0.9851639441345696,1,0
1252,6,1,55,60,34,4,2,26,0.991544830557018,1,0
1253,6,1,56,49,40,4,2,27,1.0355389500653018,1,0
1254,6,1,57,56,49,4,3,28,1.2479473063162914,0,0
1255,6,1,58,48,52,4,3,29,0.9835255438549666,1,0
1256,6,1,59,53,47,4,3,30,1.149467161509051,0,0
1257,6,1,60,52,34,3,1,31,0.9961101646695172,1,0
1258,6,1,61,61,46,4,3,31,1.2297678898803497,0,0
1259,6,1,62,48,60,4,3,32,1.3621192298016922,0,0
1260,6,1,63,50,40,3,1,33,0.98936609951852,1,0
1261,6,1,64,56,54,4,3,34,1.9100641126509568,0,0
1262,6,1,65,49,42,4,2,31,1.1655808282591806,1,0
1263,6,1,66,54,39,4,2,32,1.499300095880585,1,0
1264,6,1,67,48,36,2,1,32,1.4977122129428149,1,0
1265,6,1,68,57,30,4,2,33,1.1223233062098643,1,0
1266,6,1,69,53,46,4,2,34,1.0024654510874598,1,0
1267,6,1,70,52,38,4,2,35,1.0059415903474471,1,0
1268,6,1,71,45,33,3,1,35,1.2495638612589346,1,0
1269,6,1,72,33,35,2,1,35,1.4744165503004751,1,0
1270,6,1,73,41,46,2,1,36,1.6800989320702229,0,0
1271,6,1,74,58,55,4,3,38,1.175978184700284,0,0
1272,6,1,75,54,43,4,2,38,1.1067666955549385,1,0
1273,6,1,76,36,29,2,1,37,1.4018767192536643,0,0
1274,6,1,77,62,47,4,2,39,1.1816962016762318,1,0
1275,6,1,78,58,38,3,1,38,1.2190612853864875,1,0
1276,6,1,79,40,31,3,1,39,0.9494731007100654,1,0
1277,6,1,80,39,41,2,1,40,1.5384404545604866,1,0
1278,6,2,1,48,37,2,1,1,1.4571641953560857,0,0
1279,6,2,2,38,30,2,1,2,1.3076082871650672,0,0
1280,6,2,3,55,42,4,3,1,1.491397545198538,1,0
1281,6,2,4,46,37,4,2,2,1.2289469830735698,1,0
1282,6,2,5,53,42,4,2,3,1.0440408821830258,1,0
1283,6,2,6,60,37,4,2,4,0.8851003537238284,1,0
1284,6,2,7,48,50,4,3,3,0.8907811653599538,1,0
1285,6,2,8,50,35,3,1,3,0.9176635592813228,1,0
1286,6,2,9,57,42,4,2,6,1.3404722074404845,1,0
1287,6,2,10,54,43,4,2,7,1.176591902138398,1,0
1288,6,2,11,51,46,3,1,4,2.378634645953639,1,0
1289,6,2,12,50,33,3,1,5,1.0983453181175946,1,0
1290,6,2,13,58,55,4,3,7,1.2022229678459553,1,0
1291,6,2,14,50,44,3,1,6,1.354430012489388,1,0
1292,6,2,15,54,39,4,2,8,1.416437660405336,1,0
1293,6,2,16,51,38,4,2,9,1.119749311103874,1,0
1294,6,2,17,41,40,2,1,8,2.2096667664496863,1,0
1295,6,2,18,45,26,3,1,8,1.287376774378913,1,0
1296,6,2,19,54,33,3,1,9,1.0419515804929915,1,0
1297,6,2,20,57,39,4,2,11,0.8960752462635355,1,0
1298,6,2,21,44,36,3,1,10,1.466770682328843,1,0
1299,6,2,22,54,51,4,3,11,0.9963402233753412,1,0
1300,6,2,23,51,47,4,2,12,1.369026110980485,1,0
1301,6,2,24,64,45,4,2,13,1.1144876568724842,1,0
1302,6,2,25,46,38,3,1,11,1.4461377614742332,1,0
1303,6,2,26,38,34,2,1,13,1.5130322795575917,1,0
1304,6,2,27,50,49,4,3,14,1.2554593715983628,1,0
1305,6,2,28,57,32,3,1,13,1.124830058637713,1,0
1306,6,2,29,47,37,3,1,14,1.2530085978467014,1,0
1307,6,2,30,50,37,2,1,15,1.3741054931806502,1,0
1308,6,2,31,55,53,4,3,16,1.0376657984282929,1,0
1309,6,2,32,51,35,4,2,16,1.119817236448739,1,0
1310,6,2,33,61,42,4,2,17,0.8931206644259646,1,0
1311,6,2,34,50,49,4,3,18,0.9685474932988428,1,0
1312,6,2,35,60,56,4,3,19,0.8964630009963912,1,0
1313,6,2,36,30,29,2,1,17,1.4031099567974934,1,0
1314,6,2,37,44,41,2,1,18,1.752923435165599,1,0
1315,6,2,38,51,30,3,1,18,0.9300792200667728,1,0
1316,6,2,39,58,49,4,3,20,0.906875034773293,1,0
1317,6,2,40,48,38,3,1,20,1.268069933750667,1,0
1318,6,2,41,53,52,4,3,22,1.0655595631889128,1,0
1319,6,2,42,56,58,4,3,23,1.1016784386864629,1,0
1320,6,2,43,52,37,4,2,22,1.0497530964912585,1,0
1321,6,2,44,43,36,2,1,20,1.4325277751513568,1,0
1322,6,2,45,52,43,4,3,24,1.1661252550187555,1,0
1323,6,2,46,33,34,2,1,21,1.7179702132002603,1,0
1324,6,2,47,41,42,2,1,22,1.0802338270265182,1,0
1325,6,2,48,55,35,4,2,25,1.0861091986960218,1,0
1326,6,2,49,44,41,2,1,24,2.1225332262456504,1,0
1327,6,2,50,34,34,2,1,25,1.5828967394810434,1,0
1328,6,2,51,40,35,2,1,26,1.498090410340751,0,0
1329,6,2,52,44,40,3,1,25,1.365751358421562,1,0
1330,6,2,53,53,39,3,1,26,0.870986217981681,1,0
1331,6,2,54,54,40,4,2,27,1.268243331113581,1,0
1332,6,2,55,49,54,4,3,27,0.9208854051644266,1,0
1333,6,2,56,47,28,3,1,28,1.365974249126225,1,0
1334,6,2,57,52,31,3,1,29,1.2619088660325133,1,0
1335,6,2,58,47,47,4,3,29,0.8807910196550209,1,0
1336,6,2,59,40,39,2,1,29,1.665452998903902,1,0
1337,6,2,60,59,52,4,3,30,1.1251891413655812,1,0
1338,6,2,61,56,36,4,2,30,0.99380275094245,1,0
1339,6,2,62,52,48,4,3,32,1.1059410100804143,1,0
1340,6,2,63,59,55,4,3,33,0.9004862976830736,1,0
1341,6,2,64,46,42,3,1,32,1.3865102312979616,1,0
1342,6,2,65,46,33,2,1,31,1.1078067383989492,1,0
1343,6,2,66,48,36,3,1,34,1.4443966198437008,1,0
1344,6,2,67,53,39,4,2,33,0.7943537995697625,1,0
1345,6,2,68,45,39,2,1,33,2.133740566825054,1,0
1346,6,2,69,62,56,4,3,35,1.2639056663733754,0,0
1347,6,2,70,49,60,4,3,36,2.1473744464851734,0,0
1348,6,2,71,48,34,4,2,35,1.1883317228084709,1,0
1349,6,2,72,56,36,4,2,36,1.039102129340108,1,0
1350,6,2,73,46,31,2,1,35,1.465371215423147,1,0
1351,6,2,74,40,43,3,1,37,1.4367043305310292,1,0
1352,6,2,75,32,32,2,1,37,1.3291116081682048,1,0
1353,6,2,76,44,41,4,2,38,0.9414917020146732,1,0
1354,6,2,77,57,53,4,3,39,1.3126200853537284,1,0
1355,6,2,78,43,36,2,1,38,1.5531116463978378,1,0
1356,6,2,79,45,35,3,1,39,1.4974176422258552,1,0
1357,6,2,80,40,38,2,1,40,1.4292861319313488,1,0
1358,6,3,1,49,50,4,2,1,1.48221021563063,1,0
1359,6,3,2,57,40,4,2,2,1.1352994364242477,0,0
1360,6,3,3,52,53,4,3,2,1.4803598473149575,1,0
1361,6,3,4,43,43,2,1,2,1.2766507138815086,0,0
1362,6,3,5,36,33,2,1,3,1.3756087254373597,1,0
1363,6,3,6,55,44,4,3,3,1.51879057387373,0,0
1364,6,3,7,33,38,2,1,4,0.931272180270298,1,0
1365,6,3,8,49,35,3,1,3,0.8935244618282923,0,0
1366,6,3,9,46,56,4,3,4,1.075506700886535,1,0
1367,6,3,10,60,45,4,3,5,0.8920420509084579,0,0
1368,6,3,11,51,41,4,2,6,1.048783709658892,1,0
1369,6,3,12,58,60,4,3,7,1.083997369002191,0,0
1370,6,3,13,53,49,4,3,8,0.9959719246458008,0,0
1371,6,3,14,60,30,4,2,8,1.602458897486258,1,0
1372,6,3,15,43,31,2,1,6,1.3506156118385206,1,0
1373,6,3,16,50,36,3,1,7,1.132373526591664,1,0
1374,6,3,17,55,52,4,3,10,1.4878995606015906,1,0
1375,6,3,18,48,43,4,3,11,0.9808785034033464,1,0
1376,6,3,19,37,33,2,1,8,2.018478765820418,0,0
1377,6,3,20,58,45,4,2,11,1.161893062296258,1,0
1378,6,3,21,44,57,4,3,12,1.0913711942607731,0,0
1379,6,3,22,34,39,2,1,9,1.7054746804010392,1,0
1380,6,3,23,57,42,4,2,13,1.0333643150274838,1,0
1381,6,3,24,50,42,4,2,14,1.0222143184580543,0,0
1382,6,3,25,48,42,3,1,10,1.208965667663506,1,0
1383,6,3,26,57,55,4,3,15,1.0878967616677069,1,0
1384,6,3,27,48,38,4,2,16,1.2283588656400752,1,0
1385,6,3,28,54,38,4,2,17,0.8456043256499015,1,0
1386,6,3,29,47,35,3,1,12,1.1075804343604432,1,0
1387,6,3,30,40,30,2,1,13,1.8472468219301843,0,0
1388,6,3,31,46,38,2,1,14,0.9178226206418004,1,0
1389,6,3,32,47,37,3,1,14,1.316539958022986,1,0
1390,6,3,33,51,33,3,1,15,1.083478883580483,1,0
1391,6,3,34,48,29,3,1,16,1.1371494634067858,1,0
1392,6,3,35,39,41,2,1,17,1.4581786381957045,0,0
1393,6,3,36,56,44,4,2,19,1.0312968586745228,1,0
1394,6,3,37,53,52,4,3,19,1.3636228033917632,0,0
1395,6,3,38,56,50,4,3,20,0.8780050565128477,1,0
1396,6,3,39,54,54,4,3,21,1.0467008933037505,1,0
1397,6,3,40,35,32,2,1,18,1.880946667681428,0,0
1398,6,3,41,48,40,3,1,19,1.3492816809439323,1,0
1399,6,3,42,59,44,4,2,22,1.5291640369773631,1,0
1400,6,3,43,39,36,2,1,20,2.581678179273013,1,0
1401,6,3,44,54,40,4,2,24,1.1038295217203995,1,0
1402,6,3,45,41,30,2,1,22,1.6909454832548363,0,0
1403,6,3,46,56,39,3,1,21,1.3432305225780965,1,0
1404,6,3,47,51,32,3,1,22,1.0491188990495175,1,0
1405,6,3,48,40,34,3,1,23,2.7444184310472792,1,0
1406,6,3,49,40,46,2,1,24,2.4915938118986105,1,0
1407,6,3,50,55,26,3,1,25,1.1042640391278835,1,0
1408,6,3,51,45,37,3,1,26,1.0371524330073498,1,0
1409,6,3,52,49,41,3,1,27,0.8868589033572789,1,0
1410,6,3,53,34,36,2,1,27,1.3000228352038905,1,0
1411,6,3,54,51,32,4,2,26,1.086903822831573,1,0
1412,6,3,55,45,42,2,1,28,1.3410227782012498,1,0
1413,6,3,56,55,53,4,3,27,0.9886701207331045,1,0
1414,6,3,57,58,34,3,1,29,1.2318633355712336,1,0
1415,6,3,58,49,43,4,2,28,1.0466462799608962,1,0
1416,6,3,59,46,35,3,1,30,1.1210159993202071,1,0
1417,6,3,60,50,44,3,1,31,1.1742575230732657,1,0
1418,6,3,61,39,39,2,1,31,1.4135649985817054,1,0
1419,6,3,62,51,35,4,2,30,0.9757161771888148,1,0
1420,6,3,63,64,50,4,3,31,1.7354567228512678,1,0
1421,6,3,64,52,42,4,2,31,1.2366239123839478,1,0
1422,6,3,65,59,47,4,3,32,1.2196272161497743,1,0
1423,6,3,66,62,51,4,3,33,1.4009718444326609,0,0
1424,6,3,67,52,48,4,2,33,1.1630501824938622,1,0
1425,6,3,68,38,31,2,1,34,1.4020586499514138,1,0
1426,6,3,69,46,40,3,1,35,1.1754470699429476,1,0
1427,6,3,70,53,47,4,2,35,1.2818051894280416,1,0
1428,6,3,71,52,34,3,1,36,1.2029906266436683,1,0
1429,6,3,72,37,37,2,1,36,1.115709630414358,1,0
1430,6,3,73,41,36,2,1,37,1.0096778256518064,1,0
1431,6,3,74,56,53,4,3,36,0.997055316830938,1,0
1432,6,3,75,61,36,4,2,37,0.9004436310090114,1,0
1433,6,3,76,50,46,4,2,38,0.8689218336294289,1,0
1434,6,3,77,54,44,4,3,38,1.5318291680987386,1,0
1435,6,3,78,47,54,4,3,39,0.9691028427268976,1,0
1436,6,3,79,37,38,2,1,39,1.3272704558542046,1,0
1437,6,3,80,42,28,3,1,40,1.463699023137906,1,0
1438,7,1,1,56,40,4,2,1,2.0946581983549777,0,0
1439,7,1,2,54,40,4,2,2,1.739800120628047,0,0
1440,7,1,3,56,50,4,3,2,1.127667752000434,1,0
1441,7,1,4,50,46,3,1,1,1.7676237606526684,0,0
1442,7,1,5,54,30,3,1,2,1.7325556112691631,1,0
1443,7,1,6,46,35,4,2,3,1.3920035963132025,1,0
1444,7,1,7,42,30,2,1,3,1.368245606070559,0,0
1445,7,1,8,47,42,3,1,4,1.072865960534159,0,0
1446,7,1,9,44,34,3,1,5,2.0883496315451566,0,0
1447,7,1,10,50,38,2,1,5,1.2266042522921907,0,0
1448,7,1,11,50,38,3,1,6,1.0336512648024154,0,0
1449,7,1,12,49,39,4,2,5,1.6407465421838197,1,0
1450,7,1,13,59,35,4,2,6,1.2105631800474157,1,0
1451,7,1,14,41,28,2,1,8,1.180575471546831,0,0
1452,7,1,15,42,32,3,1,8,1.3887602242848516,1,0
1453,7,1,16,55,37,3,1,9,0.9686203244258422,1,0
1454,7,1,17,38,41,2,1,10,1.1625621615015689,1,0
1455,7,1,18,46,32,3,1,10,1.910920251346056,1,0
1456,7,1,19,58,35,3,1,11,1.3545935425426023,1,0
1457,7,1,20,51,45,4,2,8,1.4419908474239946,1,0
1458,7,1,21,55,48,4,3,9,1.5392076983492868,1,0
1459,7,1,22,60,39,4,2,10,1.0343035573667976,1,0
1460,7,1,23,48,53,4,3,11,1.0385617204958637,1,0
1461,7,1,24,55,42,3,1,13,1.582930756294104,1,0
1462,7,1,25,40,37,2,1,13,1.0893265343808023,1,0
1463,7,1,26,37,33,2,1,14,1.3859264551226715,1,0
1464,7,1,27,49,33,3,1,15,1.124568082311043,1,0
1465,7,1,28,42,39,2,1,16,1.0497073558188958,1,0
1466,7,1,29,50,56,4,3,13,1.2231267239587849,1,0
1467,7,1,30,58,48,4,3,14,1.5218791077621745,1,0
1468,7,1,31,52,36,3,1,18,1.267603792512887,1,0
1469,7,1,32,47,46,4,2,14,1.9539387923611,1,0
1470,7,1,33,34,36,2,1,18,1.3834391417182132,1,0
1471,7,1,34,56,47,4,3,16,1.3633805480282035,1,0
1472,7,1,35,51,49,4,3,17,1.6149722818327064,1,0
1473,7,1,36,54,57,4,3,18,2.8642620475295644,0,0
1474,7,1,37,53,43,4,2,17,1.4096533838145433,1,0
1475,7,1,38,59,50,4,3,19,1.4399356650430946,0,0
1476,7,1,39,55,51,4,3,20,1.5563089593459836,0,0
1477,7,1,40,52,36,4,2,19,0.9173377042510538,1,0
1478,7,1,41,62,43,4,2,20,1.4015121855146615,1,0
1479,7,1,42,60,31,3,1,22,1.3906297200330755,1,0
1480,7,1,43,30,40,2,1,21,1.12307269051405,1,0
1481,7,1,44,47,36,3,1,23,1.3803517601147632,1,0
1482,7,1,45,48,51,4,3,23,1.8607640390529243,1,0
1483,7,1,46,40,44,3,1,25,1.127747283223698,1,0
1484,7,1,47,49,43,4,3,25,1.2241241069377793,1,0
1485,7,1,48,58,41,4,2,22,1.8082867438517949,0,0
1486,7,1,49,61,53,4,3,26,1.3829834585296794,1,0
1487,7,1,50,56,26,3,1,27,1.3759655960900543,1,0
1488,7,1,51,53,39,4,2,24,1.5577500787633198,1,0
1489,7,1,52,60,37,4,2,25,1.5837349432547398,1,0
1490,7,1,53,42,39,2,1,25,1.5330674100503074,1,0
1491,7,1,54,38,37,2,1,26,1.2702177414703328,1,0
1492,7,1,55,44,29,2,1,27,1.846067488216249,1,0
1493,7,1,56,50,44,4,2,27,2.2010405960813846,1,0
1494,7,1,57,44,34,3,1,29,1.2118172474893072,1,0
1495,7,1,58,55,36,4,2,28,1.7317811205164162,1,0
1496,7,1,59,37,43,2,1,29,1.0998410399545264,1,0
1497,7,1,60,48,39,2,1,30,1.4648640954756047,1,0
1498,7,1,61,48,33,3,1,31,1.4851616241708143,1,0
1499,7,1,62,43,31,2,1,32,1.8650880799762035,1,0
1500,7,1,63,52,52,4,3,31,1.1835198334827055,1,0
1501,7,1,64,53,34,4,2,31,1.2732071597215509,1,0
1502,7,1,65,54,46,4,3,32,0.9703031095341428,1,0
1503,7,1,66,40,40,2,1,33,1.4600167868907192,1,0
1504,7,1,67,46,41,2,1,34,1.4508369039895117,1,0
1505,7,1,68,64,52,4,3,33,1.2310917930265075,1,0
1506,7,1,69,51,35,3,1,35,1.2211203525860128,1,0
1507,7,1,70,32,38,2,1,36,1.6255775827080468,1,0
1508,7,1,71,41,35,2,1,37,1.1393349483064412,1,0
1509,7,1,72,54,45,4,3,35,1.320630638226021,1,0
1510,7,1,73,51,47,4,2,36,1.0551083109444337,1,0
1511,7,1,74,45,36,3,1,38,1.7709302797895816,1,0
1512,7,1,75,57,54,4,3,37,1.108468641657737,1,0
1513,7,1,76,38,34,2,1,39,1.1241943196955615,1,0
1514,7,1,77,44,45,4,2,38,1.7790458779104483,1,0
1515,7,1,78,57,53,4,3,38,1.0569754173427557,1,0
1516,7,1,79,52,33,4,2,39,1.1217984842646729,1,0
1517,7,1,80,57,49,4,3,40,1.1107579803438057,1,0
1518,7,2,1,52,52,4,3,1,2.3962347939202573,0,0
1519,7,2,2,40,41,2,1,1,1.5642781244421258,1,0
1520,7,2,3,35,33,2,1,2,1.1954167487294851,1,0
1521,7,2,4,45,44,3,1,2,1.6342447793554131,1,0
1522,7,2,5,62,50,4,3,2,1.1419898575504703,0,0
1523,7,2,6,49,53,4,3,3,1.1358065609504138,1,0
1524,7,2,7,37,29,2,1,3,1.4034878366724115,1,0
1525,7,2,8,50,36,3,1,5,1.4897515656216456,1,0
1526,7,2,9,55,47,4,3,5,1.1381924976458322,0,0
1527,7,2,10,55,35,3,1,6,1.7205016815905765,1,0
1528,7,2,11,49,45,4,2,4,1.052957213225909,1,0
1529,7,2,12,34,38,2,1,6,1.2156757064881276,1,0
1530,7,2,13,54,40,4,3,7,1.1316763987169909,1,0
1531,7,2,14,60,56,4,3,8,1.2219330729396916,1,0
1532,7,2,15,48,32,3,1,9,1.662650738121556,1,0
1533,7,2,16,51,46,4,2,7,1.1336179163024551,1,0
1534,7,2,17,61,40,4,2,8,0.887180693232267,1,0
1535,7,2,18,43,31,2,1,8,1.451521282111571,1,0
1536,7,2,19,52,57,4,3,10,0.9114967673799584,1,0
1537,7,2,20,59,43,4,3,11,1.1570837231672613,1,0
1538,7,2,21,46,41,3,1,11,1.6848191279077582,1,0
1539,7,2,22,50,40,4,2,10,0.9986319264271516,1,0
1540,7,2,23,54,39,4,2,11,1.1604704561987091,1,0
1541,7,2,24,57,51,4,3,14,1.1499405905176443,1,0
1542,7,2,25,56,56,4,3,15,1.1153161775723677,1,0
1543,7,2,26,42,32,3,1,13,1.680618309179863,1,0
1544,7,2,27,42,40,2,1,11,1.819590076278245,1,0
1545,7,2,28,51,38,3,1,15,1.7764653798537893,1,0
1546,7,2,29,53,35,4,2,14,1.4061263618013982,1,0
1547,7,2,30,48,49,4,3,17,0.9529219532460048,1,0
1548,7,2,31,51,30,3,1,16,1.970145071094976,1,0
1549,7,2,32,55,42,4,2,15,1.3659504646775529,1,0
1550,7,2,33,50,34,3,1,17,1.1416365750783368,1,0
1551,7,2,34,38,37,2,1,15,1.2661319528806416,1,0
1552,7,2,35,38,39,2,1,16,1.6024350207719635,1,0
1553,7,2,36,48,31,3,1,19,1.5850596671907624,1,0
1554,7,2,37,44,37,2,1,17,1.3799325998484164,1,0
1555,7,2,38,51,52,4,3,20,1.4904530105300182,1,0
1556,7,2,39,46,35,3,1,21,1.4305786289021398,1,0
1557,7,2,40,56,46,4,2,18,1.7798906838218045,1,0
1558,7,2,41,39,39,2,1,19,1.6117650913909074,1,0
1559,7,2,42,38,26,2,1,20,1.546623558240526,1,0
1560,7,2,43,64,48,4,2,20,1.228293181443405,0,0
1561,7,2,44,36,42,2,1,22,2.019320967195199,1,0
1562,7,2,45,43,33,2,1,23,1.5458282460087958,1,0
1563,7,2,46,52,36,3,1,24,1.801181499467475,1,0
1564,7,2,47,46,49,4,3,23,0.9857188547366604,1,0
1565,7,2,48,51,32,4,2,23,1.1161367486477047,1,0
1566,7,2,49,53,35,3,1,26,1.5932309030345095,1,0
1567,7,2,50,45,46,3,1,27,1.7055054379900412,1,0
1568,7,2,51,53,28,3,1,28,1.3637655747224926,1,0
1569,7,2,52,60,44,4,2,24,1.2341095421425052,1,0
1570,7,2,53,37,33,2,1,27,1.5679577235227953,1,0
1571,7,2,54,54,55,4,3,27,1.193497076630365,1,0
1572,7,2,55,47,50,4,2,26,1.0445808346134982,1,0
1573,7,2,56,47,37,2,1,28,0.9580983094665498,1,0
1574,7,2,57,36,39,2,1,29,1.220232197038058,1,0
1575,7,2,58,44,34,3,1,31,1.3252905534998265,1,0
1576,7,2,59,34,30,2,1,31,1.6919192522561843,1,0
1577,7,2,60,44,48,4,3,29,0.9911133244836492,1,0
1578,7,2,61,50,42,3,1,33,1.27963280468407,1,0
1579,7,2,62,42,36,2,1,32,1.1748772130074483,1,0
1580,7,2,63,57,40,4,2,29,1.1651324194865538,1,0
1581,7,2,64,55,60,4,3,31,1.1421909042906009,1,0
1582,7,2,65,53,47,4,3,32,0.991960178409272,1,0
1583,7,2,66,56,49,4,3,33,1.3235476933045902,1,0
1584,7,2,67,53,41,4,2,32,1.3833715572452547,0,0
1585,7,2,68,54,40,3,1,36,1.4015244736006025,1,0
1586,7,2,69,58,44,4,3,35,1.2364080968930011,1,0
1587,7,2,70,52,33,4,2,33,1.0711268550317072,1,0
1588,7,2,71,58,34,3,1,37,1.7568259464301264,1,0
1589,7,2,72,59,47,4,3,37,1.5110079063592818,1,0
1590,7,2,73,54,41,4,2,35,1.1370548256847997,1,0
1591,7,2,74,43,38,2,1,36,1.793340676602611,1,0
1592,7,2,75,48,39,4,2,36,1.2051533501930862,1,0
1593,7,2,76,57,41,4,2,37,1.1471194507771545,1,0
1594,7,2,77,50,30,4,2,38,1.215712912081699,1,0
1595,7,2,78,37,36,2,1,39,1.9468379853410624,1,0
1596,7,2,79,54,43,3,1,40,1.4344442559511208,1,0
1597,7,2,80,58,45,4,2,40,1.313931924686358,1,0
1598,7,3,1,47,30,4,2,1,1.205199089179814,0,0
1599,7,3,2,56,48,4,3,1,0.9533103932972152,1,0
1600,7,3,3,51,36,3,1,1,1.4599218955602282,1,0
1601,7,3,4,52,41,4,2,2,1.1978078054603432,1,0
1602,7,3,5,56,50,4,3,3,1.514238990301692,1,0
1603,7,3,6,39,35,2,1,2,1.5622482009046053,1,0
1604,7,3,7,40,34,2,1,3,2.400758857576648,0,0
1605,7,3,8,58,54,4,3,4,1.3298514814139253,1,0
1606,7,3,9,54,50,4,3,5,1.404349709369626,1,0
1607,7,3,10,48,36,4,2,6,1.36658944514852,1,0
1608,7,3,11,45,37,3,1,5,1.6672478476223205,0,0
1609,7,3,12,54,43,4,2,7,1.2084284664433649,1,0
1610,7,3,13,59,48,4,3,8,1.0755771901722255,1,0
1611,7,3,14,51,42,4,2,8,1.1546824263643884,1,0
1612,7,3,15,44,55,4,3,9,1.3321752950078007,1,0
1613,7,3,16,37,33,2,1,6,2.210383296122245,1,0
1614,7,3,17,59,45,4,3,10,1.3766786464127565,1,0
1615,7,3,18,50,38,3,1,8,1.8373135922956865,0,0
1616,7,3,19,57,39,3,1,9,0.9676208934324676,1,0
1617,7,3,20,42,34,2,1,8,1.7688419878436434,0,0
1618,7,3,21,44,46,3,1,10,2.2466297364171623,1,0
1619,7,3,22,54,46,4,3,13,1.0621985365573892,1,0
1620,7,3,23,56,39,4,2,12,1.0857896136319596,1,0
1621,7,3,24,53,33,3,1,12,1.6883062136412263,1,0
1622,7,3,25,45,37,2,1,11,2.0879905463659725,0,0
1623,7,3,26,40,30,2,1,12,1.2393944431225918,1,0
1624,7,3,27,60,47,4,3,15,0.9795642303374734,1,0
1625,7,3,28,51,39,3,1,14,1.3358712782032849,1,0
1626,7,3,29,47,36,3,1,15,1.4515284501617316,1,0
1627,7,3,30,51,41,4,2,14,1.0477590115192472,1,0
1628,7,3,31,58,40,3,1,16,1.5272769908663122,1,0
1629,7,3,32,58,40,4,2,15,1.2478899479019674,1,0
1630,7,3,33,34,29,2,1,15,1.9643215423459424,1,0
1631,7,3,34,42,43,3,1,18,1.370524022013342,1,0
1632,7,3,35,50,47,4,2,17,1.076797124041832,1,0
1633,7,3,36,53,30,3,1,19,1.4388877643773412,1,0
1634,7,3,37,49,42,3,1,20,1.005515302592357,1,0
1635,7,3,38,57,44,4,2,18,1.093902822402697,1,0
1636,7,3,39,35,32,2,1,19,1.0691836307676112,1,0
1637,7,3,40,50,38,2,1,20,2.033492543691864,1,0
1638,7,3,41,53,38,4,2,20,1.0728765419414683,1,0
1639,7,3,42,34,31,2,1,21,1.349828837202267,1,0
1640,7,3,43,45,26,2,1,22,1.1025102852986493,1,0
1641,7,3,44,60,53,4,3,21,1.6728211772872328,1,0
1642,7,3,45,49,46,4,3,22,0.9734741183897312,1,0
1643,7,3,46,51,37,3,1,24,1.4835822637862748,1,0
1644,7,3,47,57,54,4,3,24,1.1452035333709318,1,0
1645,7,3,48,50,33,4,2,23,1.1864901369337986,1,0
1646,7,3,49,41,35,2,1,24,1.4271809731278609,1,0
1647,7,3,50,53,40,4,3,25,1.5719336020101764,1,0
1648,7,3,51,61,36,4,2,25,1.0983633976150031,1,0
1649,7,3,52,53,56,4,3,27,1.4391966732057426,1,0
1650,7,3,53,55,46,4,2,27,1.2977300833167646,1,0
1651,7,3,54,64,35,4,2,28,1.0838788162614037,1,0
1652,7,3,55,48,41,3,1,27,1.1900492445045074,1,0
1653,7,3,56,52,43,4,2,29,1.3335150377158698,1,0
1654,7,3,57,50,39,3,1,28,1.5475734955543885,1,0
1655,7,3,58,54,55,4,3,30,1.3746579389398903,1,0
1656,7,3,59,52,56,4,3,31,1.1209284195099372,1,0
1657,7,3,60,49,34,3,1,30,1.44936165099989,1,0
1658,7,3,61,38,44,2,1,29,1.2684250462596085,1,0
1659,7,3,62,43,33,2,1,30,1.1267335161298888,1,0
1660,7,3,63,55,37,4,2,32,2.3926323367127225,1,0
1661,7,3,64,51,48,4,2,33,1.3360699355935142,1,0
1662,7,3,65,44,40,2,1,32,1.3707090259747474,1,0
1663,7,3,66,39,36,2,1,33,1.2837718416460575,1,0
1664,7,3,67,60,36,3,1,33,1.300051166224648,1,0
1665,7,3,68,48,47,4,3,34,1.2329636781244062,1,0
1666,7,3,69,46,28,2,1,34,1.3293555206105343,1,0
1667,7,3,70,32,32,2,1,35,1.4727868389136347,1,0
1668,7,3,71,43,41,3,1,35,1.4645179810538589,1,0
1669,7,3,72,40,31,2,1,37,1.413988688816744,1,0
1670,7,3,73,38,38,2,1,38,1.6872938118906404,1,0
1671,7,3,74,52,42,3,1,37,1.570444695591732,1,0
1672,7,3,75,55,37,4,2,37,1.2791238731228989,1,0
1673,7,3,76,52,35,3,1,38,1.3289926807381107,1,0
1674,7,3,77,62,49,4,3,37,1.215040822045694,1,0
1675,7,3,78,49,42,4,2,39,1.1174618139193626,1,0
1676,7,3,79,57,52,4,3,39,1.2851713181053128,1,0
1677,7,3,80,46,44,4,3,40,0.8288447117026863,1,0
1678,8,1,1,34,37,2,1,1,2.2279846139508663,1,0
1679,8,1,2,41,35,2,1,2,2.2153623602953303,1,0
1680,8,1,3,51,51,4,3,1,1.5749189242328612,0,0
1681,8,1,4,55,43,4,3,2,1.971865744468687,0,0
1682,8,1,5,53,48,4,2,3,1.6452016560247102,1,0
1683,8,1,6,47,33,3,1,3,2.448568045446791,1,0
1684,8,1,7,52,46,3,1,4,1.6258564539925828,1,0
1685,8,1,8,38,32,2,1,4,2.567150805876736,1,0
1686,8,1,9,54,48,4,3,4,1.9909583580661088,0,0
1687,8,1,10,48,51,4,3,5,2.1611213834203227,0,0
1688,8,1,11,60,45,4,3,6,1.3906420081189026,0,0
1689,8,1,12,61,33,4,2,6,1.994476505350576,0,0
1690,8,1,13,43,38,2,1,6,1.8769170694145032,1,0
1691,8,1,14,46,41,4,2,7,2.149070867098544,1,0
1692,8,1,15,50,58,4,3,8,1.47737541502147,0,0
1693,8,1,16,54,35,3,1,8,1.5540076739098367,1,0
1694,8,1,17,38,37,2,1,8,2.0494349699129093,1,0
1695,8,1,18,57,50,4,3,10,2.00604198361134,0,0
1696,8,1,19,50,30,3,1,10,2.310458833717348,1,0
1697,8,1,20,50,53,4,3,11,1.9511080952206608,0,0
1698,8,1,21,44,39,3,1,11,1.4499951700995553,1,0
1699,8,1,22,57,34,3,1,12,2.6203903037439886,0,0
1700,8,1,23,58,36,4,2,10,1.67881161920468,1,0
1701,8,1,24,49,44,4,2,11,3.2001940834911693,1,0
1702,8,1,25,59,37,4,2,12,1.820042004773768,1,0
1703,8,1,26,52,42,3,1,13,1.5306995641485628,1,0
1704,8,1,27,42,41,2,1,12,2.8762122111488684,1,0
1705,8,1,28,64,40,4,2,14,2.383174606533885,1,0
1706,8,1,29,53,34,4,2,15,2.9234066533840632,1,0
1707,8,1,30,48,36,3,1,15,2.1400821322013144,1,0
1708,8,1,31,43,26,2,1,15,1.986957903407074,1,0
1709,8,1,32,49,38,3,1,16,1.9983639778856737,1,0
1710,8,1,33,54,29,3,1,17,2.1742238964361604,1,0
1711,8,1,34,54,60,4,3,18,1.9315481930198075,1,0
1712,8,1,35,37,43,2,1,17,2.414808577220356,1,0
1713,8,1,36,47,33,3,1,19,2.807684286302901,1,0
1714,8,1,37,32,40,2,1,18,1.9035624185275992,1,0
1715,8,1,38,44,28,3,1,21,1.400452338098603,1,0
1716,8,1,39,55,41,4,2,18,1.4533972632384575,1,0
1717,8,1,40,36,39,2,1,20,1.6517348217389554,1,0
1718,8,1,41,50,41,3,1,22,1.4332942959049433,1,0
1719,8,1,42,49,55,4,3,21,1.3126771745728547,1,0
1720,8,1,43,56,49,4,3,22,1.677999922858362,0,0
1721,8,1,44,51,51,4,3,23,1.8609995607012024,0,0
1722,8,1,45,57,43,4,2,21,2.8013484126349795,0,0
1723,8,1,46,48,39,4,2,22,1.5979710322026222,1,0
1724,8,1,47,44,34,2,1,23,1.9174817479256487,1,0
1725,8,1,48,57,47,4,3,25,3.0154253026025803,1,0
1726,8,1,49,52,45,4,2,24,2.5231215697890548,1,0
1727,8,1,50,39,40,2,1,24,2.8435228304106204,0,0
1728,8,1,51,37,31,2,1,25,2.0512194730667943,0,0
1729,8,1,52,58,42,4,2,26,1.5002462737229507,1,0
1730,8,1,53,45,32,2,1,27,1.823920602580074,1,0
1731,8,1,54,59,35,4,2,27,1.7681272308423104,1,0
1732,8,1,55,52,40,4,2,28,2.6049370116129467,1,0
1733,8,1,56,42,39,2,1,29,2.505288485005168,0,0
1734,8,1,57,38,37,2,1,30,1.2094227774009596,1,0
1735,8,1,58,42,31,3,1,28,2.2001749686910443,1,0
1736,8,1,59,54,40,4,2,30,1.5234482280748125,1,0
1737,8,1,60,53,30,3,1,29,3.1177993949481784,1,0
1738,8,1,61,62,53,4,3,29,2.186444056611436,0,0
1739,8,1,62,39,42,2,1,32,1.9019427805278608,1,0
1740,8,1,63,46,36,2,1,33,1.7385166983140152,0,0
1741,8,1,64,46,36,3,1,32,1.4975500628570444,1,0
1742,8,1,65,56,35,4,2,33,2.0312301705280333,1,0
1743,8,1,66,53,40,4,3,31,2.0219792897964908,0,0
1744,8,1,67,56,56,4,3,32,1.879436809712388,0,0
1745,8,1,68,49,34,3,1,34,1.2964753332034888,1,0
1746,8,1,69,51,47,4,2,35,2.2501567584304207,1,0
1747,8,1,70,47,50,4,3,34,2.0387218069495248,0,0
1748,8,1,71,56,36,3,1,35,1.5358721656757552,1,0
1749,8,1,72,50,35,2,1,37,2.2812893069422,0,0
1750,8,1,73,48,38,3,1,37,2.13560380753188,1,0
1751,8,1,74,60,55,4,3,36,2.3120061085437555,0,0
1752,8,1,75,54,40,4,2,37,2.474768634114298,0,0
1753,8,1,76,52,46,4,2,38,2.0461182107046625,0,0
1754,8,1,77,45,33,3,1,38,1.0952343730532448,1,0
1755,8,1,78,44,52,4,3,39,1.3963904430092953,0,0
1756,8,1,79,30,44,2,1,40,2.2313081998745474,1,0
1757,8,1,80,55,46,4,3,40,1.110488666459787,0,0
1758,8,2,1,51,38,4,2,1,2.0423686378007915,0,0
1759,8,2,2,40,30,2,1,1,2.570594200637061,0,0
1760,8,2,3,56,46,4,2,2,1.4518363349834544,1,0
1761,8,2,4,54,50,4,3,2,1.4622760880329224,1,0
1762,8,2,5,39,41,2,1,3,2.1021754349549155,1,0
1763,8,2,6,55,47,4,3,3,1.2730958842766995,1,0
1764,8,2,7,52,48,4,3,4,1.0293483866935276,1,0
1765,8,2,8,54,51,4,3,5,1.0891886347490072,1,0
1766,8,2,9,60,40,3,1,4,1.5896386858985352,1,0
1767,8,2,10,39,33,2,1,4,2.7152178046171684,0,0
1768,8,2,11,57,43,4,2,6,1.2377451089150782,1,0
1769,8,2,12,45,31,2,1,6,3.1064260886987536,1,0
1770,8,2,13,37,36,2,1,7,2.402675798990458,0,0
1771,8,2,14,52,30,4,2,8,1.620038727951396,1,0
1772,8,2,15,50,47,4,2,9,0.9499055694723212,1,0
1773,8,2,16,60,39,4,2,10,0.9024172371809982,1,0
1774,8,2,17,49,35,3,1,6,1.7195213653976682,1,0
1775,8,2,18,57,39,3,1,7,2.0454744515327548,1,0
1776,8,2,19,51,49,4,3,9,1.044752526481716,1,0
1777,8,2,20,42,38,2,1,10,2.9564899355455045,0,0
1778,8,2,21,60,48,4,2,12,0.9615304401486356,1,0
1779,8,2,22,42,36,3,1,9,1.975220391942457,1,0
1780,8,2,23,37,38,2,1,12,1.5741737883518,0,0
1781,8,2,24,56,52,4,3,11,1.068174642374288,1,0
1782,8,2,25,52,32,3,1,11,1.4199132529392955,0,0
1783,8,2,26,46,29,3,1,12,1.4460397717557498,1,0
1784,8,2,27,43,44,2,1,14,1.7439917232914013,0,0
1785,8,2,28,47,33,3,1,14,1.2547480652237937,1,0
1786,8,2,29,34,36,2,1,16,1.8625427394990768,0,0
1787,8,2,30,48,34,4,2,15,1.2450879229618297,1,0
1788,8,2,31,51,37,3,1,15,1.652390868996008,1,0
1789,8,2,32,44,50,4,2,16,1.2085902595754303,1,0
1790,8,2,33,57,56,4,3,15,0.9679557437757468,1,0
1791,8,2,34,54,44,4,3,16,0.9239510838606292,1,0
1792,8,2,35,58,40,4,3,17,1.220690952248333,1,0
1793,8,2,36,53,34,3,1,18,1.7289586154338394,0,0
1794,8,2,37,52,38,4,2,19,0.8717052142783359,1,0
1795,8,2,38,59,53,4,3,19,0.9773482788323236,1,0
1796,8,2,39,59,45,4,2,20,0.9964490844868124,1,0
1797,8,2,40,46,46,4,2,21,0.8763996044599479,1,0
1798,8,2,41,58,40,4,2,22,0.9510128625543076,1,0
1799,8,2,42,33,33,2,1,21,2.4961082607687786,1,0
1800,8,2,43,47,50,4,3,22,0.9058869147929728,1,0
1801,8,2,44,54,45,4,3,23,0.970583004826949,1,0
1802,8,2,45,52,43,3,1,21,2.2826884420646816,1,0
1803,8,2,46,53,43,4,3,24,1.0681814690888132,1,0
1804,8,2,47,41,37,2,1,22,1.816248399562028,1,0
1805,8,2,48,53,26,3,1,23,1.592373126365601,1,0
1806,8,2,49,50,36,4,2,26,0.8850207207842686,1,0
1807,8,2,50,48,34,3,1,24,1.7993478439702812,1,0
1808,8,2,51,54,42,3,1,25,1.3035164064722269,1,0
1809,8,2,52,54,38,3,1,26,0.9188180772771376,1,0
1810,8,2,53,44,28,2,1,26,3.0865879978855446,0,0
1811,8,2,54,37,46,2,1,27,1.400263238107982,1,0
1812,8,2,55,57,41,4,2,28,1.2685991274775006,1,0
1813,8,2,56,40,31,2,1,28,2.9659408390098183,1,0
1814,8,2,57,49,42,4,2,29,1.0439753050432046,1,0
1815,8,2,58,62,35,4,2,30,0.9840036427349332,1,0
1816,8,2,59,61,46,4,3,29,0.9363647813897842,1,0
1817,8,2,60,42,35,2,1,30,1.655309630753436,1,0
1818,8,2,61,53,55,4,3,30,1.1070616558126858,1,0
1819,8,2,62,55,48,4,3,31,1.4935851071131765,0,0
1820,8,2,63,56,39,3,1,30,3.1435077775058744,0,0
1821,8,2,64,36,41,2,1,32,2.030190803255209,1,0
1822,8,2,65,49,45,4,3,33,0.9122507779893568,1,0
1823,8,2,66,55,51,4,3,34,0.958905568449154,1,0
1824,8,2,67,41,35,2,1,33,1.3401884924123806,1,0
1825,8,2,68,53,44,4,3,35,1.238175191923801,1,0
1826,8,2,69,51,40,4,2,36,1.2667924375018629,1,0
1827,8,2,70,35,37,2,1,34,1.5885180807235884,1,0
1828,8,2,71,43,34,2,1,35,1.1855408822912068,1,0
1829,8,2,72,64,58,4,3,36,0.9451255040248724,1,0
1830,8,2,73,50,30,3,1,35,1.668254446665742,1,0
1831,8,2,74,49,39,3,1,36,2.088486848505454,1,0
1832,8,2,75,50,32,3,1,37,1.4375483630055896,1,0
1833,8,2,76,38,42,2,1,38,1.2557778750961006,1,0
1834,8,2,77,48,44,4,2,39,1.9310303867296168,1,0
1835,8,2,78,56,32,4,2,40,1.1064452034997885,1,0
1836,8,2,79,47,36,3,1,39,1.348376112369806,1,0
1837,8,2,80,55,40,3,1,40,2.0900737182764715,1,0
1838,8,3,1,56,42,3,1,1,1.6039430419905332,0,0
1839,8,3,2,49,28,3,1,2,1.5447417744062475,1,0
1840,8,3,3,50,30,4,2,1,2.6242678775442982,1,0
1841,8,3,4,59,50,4,3,2,1.5140065406749272,1,0
1842,8,3,5,43,35,2,1,2,2.3419545634360475,0,0
1843,8,3,6,48,41,2,1,3,2.0295152998614867,1,0
1844,8,3,7,49,48,4,3,3,1.4144819189350528,1,0
1845,8,3,8,54,36,4,2,4,1.506852826618342,1,0
1846,8,3,9,55,36,3,1,5,1.3825714663134931,0,0
1847,8,3,10,40,44,2,1,5,1.891737866453696,1,0
1848,8,3,11,55,38,4,2,5,1.4128650116208517,1,0
1849,8,3,12,45,35,2,1,7,1.6360047063371894,1,0
1850,8,3,13,54,49,4,3,6,2.9732078765264305,1,0
1851,8,3,14,34,39,2,1,8,2.0844693270601056,1,0
1852,8,3,15,34,46,2,1,9,2.030622251607383,1,0
1853,8,3,16,47,26,2,1,10,2.4230091679364705,0,0
1854,8,3,17,54,35,3,1,9,1.6680708080475597,1,0
1855,8,3,18,54,42,4,2,9,1.3205859232466537,1,0
1856,8,3,19,62,38,4,2,10,1.6394501491131448,1,0
1857,8,3,20,47,40,3,1,10,2.94903755273208,1,0
1858,8,3,21,50,38,3,1,11,1.3107192728730297,1,0
1859,8,3,22,64,55,4,3,9,1.133990654911031,1,0
1860,8,3,23,52,51,4,3,10,1.2259311382485976,1,0
1861,8,3,24,33,32,2,1,13,1.4264931816487658,0,0
1862,8,3,25,56,46,4,3,11,1.3025432583290242,1,0
1863,8,3,26,53,42,4,2,13,1.823920943916164,1,0
1864,8,3,27,60,37,4,2,14,1.454506262997711,1,0
1865,8,3,28,47,46,4,2,15,1.1307442108609391,1,0
1866,8,3,29,50,29,2,1,16,1.7733773155787276,1,0
1867,8,3,30,52,37,3,1,14,1.4875004565365089,1,0
1868,8,3,31,59,43,4,3,14,1.7337912465827685,1,0
1869,8,3,32,51,45,4,3,15,1.4161227197491826,1,0
1870,8,3,33,35,39,2,1,17,1.3762130644881836,1,0
1871,8,3,34,35,33,2,1,18,2.0947237348136696,0,0
1872,8,3,35,52,34,3,1,17,1.81441610940783,1,0
1873,8,3,36,45,39,3,1,18,2.1964677214164112,1,0
1874,8,3,37,55,53,4,3,17,0.946443059910962,1,0
1875,8,3,38,52,41,4,2,19,1.0322251641564435,1,0
1876,8,3,39,48,54,4,3,19,1.2739577569736866,1,0
1877,8,3,40,47,31,3,1,20,1.7510594207469694,1,0
1878,8,3,41,55,42,4,3,20,1.0894770634340605,1,0
1879,8,3,42,51,40,4,2,21,1.550660877158407,1,0
1880,8,3,43,37,40,2,1,22,1.6628012671744727,1,0
1881,8,3,44,43,34,2,1,23,2.0183256322307,1,0
1882,8,3,45,58,38,4,2,23,1.3928548876037894,1,0
1883,8,3,46,44,38,2,1,24,1.5852317003946157,1,0
1884,8,3,47,52,53,4,3,22,1.3220048558423514,1,0
1885,8,3,48,57,44,4,3,23,1.1106641130199932,1,0
1886,8,3,49,58,60,4,3,24,1.034487878656364,1,0
1887,8,3,50,53,39,4,2,26,1.314891760735918,1,0
1888,8,3,51,57,41,4,2,27,1.0520301454062064,1,0
1889,8,3,52,53,42,3,1,25,2.499115769812306,1,0
1890,8,3,53,48,40,4,2,28,1.0800067038335328,1,0
1891,8,3,54,50,36,4,2,29,1.0904921958699558,1,0
1892,8,3,55,40,33,3,1,26,1.468337527780932,1,0
1893,8,3,56,54,44,4,2,30,1.0578536741541031,1,0
1894,8,3,57,44,46,4,3,29,1.1075514725735047,1,0
1895,8,3,58,43,34,2,1,29,1.4833091952095856,1,0
1896,8,3,59,56,40,4,2,32,1.3429836906379933,1,0
1897,8,3,60,57,43,3,1,28,1.7360266542236786,1,0
1898,8,3,61,51,46,4,2,33,0.9116575365051176,1,0
1899,8,3,62,60,56,4,3,31,1.096711332720588,1,0
1900,8,3,63,61,37,4,2,34,1.1047637837345974,1,0
1901,8,3,64,44,36,3,1,29,2.325768423509544,1,0
1902,8,3,65,39,31,2,1,32,2.0004864034035563,1,0
1903,8,3,66,50,30,3,1,31,1.9092910559456868,1,0
1904,8,3,67,50,37,3,1,32,1.2418367002119342,1,0
1905,8,3,68,51,36,3,1,33,1.04695516589436,1,0
1906,8,3,69,49,49,4,3,35,1.4692727876581555,1,0
1907,8,3,70,57,47,4,3,36,1.2799935965413172,1,0
1908,8,3,71,46,58,4,3,37,1.0134933424169503,1,0
1909,8,3,72,45,38,2,1,35,1.214105903503878,1,0
1910,8,3,73,53,48,4,3,38,1.9301702207112608,1,0
1911,8,3,74,39,36,2,1,36,2.3147135834897203,1,0
1912,8,3,75,52,32,3,1,37,1.3783027217768904,1,0
1913,8,3,76,56,42,4,2,39,2.112349628814627,1,0
1914,8,3,77,41,41,2,1,38,3.114294218421492,1,0
1915,8,3,78,32,30,2,1,39,1.1520916882363963,1,0
1916,8,3,79,51,33,3,1,39,1.2783575744279003,1,0
1917,8,3,80,48,37,3,1,40,1.272320710852,1,0
1918,9,1,1,59,45,4,3,1,1.7444540814567515,0,0
1919,9,1,2,54,34,3,1,1,2.844478077276108,0,0
1920,9,1,3,51,39,3,1,2,3.054650393200518,1,0
1921,9,1,4,52,37,4,2,1,3.1870294916470807,1,0
1922,9,1,5,42,38,3,1,3,2.7677706450235746,1,0
1923,9,1,6,56,51,4,3,4,2.864658800270263,0,0
1924,9,1,7,47,50,4,2,3,1.918923826756327,1,0
1925,9,1,8,55,41,4,2,4,1.5488086229297549,1,0
1926,9,1,9,52,48,4,3,6,1.3469966143024976,1,0
1927,9,1,10,54,53,4,3,7,1.7915125114477632,1,0
1928,9,1,11,52,39,4,2,6,1.3951527762274054,1,0
1929,9,1,12,50,48,4,3,8,1.3284932093197312,1,0
1930,9,1,13,64,47,4,3,9,1.1674860402699778,1,0
1931,9,1,14,50,29,3,1,7,1.4296866173299352,1,0
1932,9,1,15,44,39,2,1,5,2.197458627691958,0,0
1933,9,1,16,56,35,4,2,8,1.9020885237519,1,0
1934,9,1,17,46,32,4,2,9,1.40301746574778,1,0
1935,9,1,18,45,26,2,1,7,1.9815652032630169,1,0
1936,9,1,19,43,30,2,1,8,3.6208568384840873,1,0
1937,9,1,20,48,39,4,2,11,1.6982537665412565,1,0
1938,9,1,21,55,40,3,1,9,1.6726171519931086,1,0
1939,9,1,22,47,32,2,1,10,2.2668891485304807,1,0
1940,9,1,23,45,36,3,1,11,1.929133484681188,1,0
1941,9,1,24,57,36,4,2,13,1.6723195082595343,1,0
1942,9,1,25,46,37,3,1,12,1.5972852980039534,1,0
1943,9,1,26,34,30,2,1,12,2.443016073103081,1,0
1944,9,1,27,59,41,4,2,14,1.4818008947745511,1,0
1945,9,1,28,30,41,2,1,14,1.4077568960674398,1,0
1946,9,1,29,51,58,4,3,15,1.4767112551999162,1,0
1947,9,1,30,52,28,3,1,14,1.6904505172410609,1,0
1948,9,1,31,46,46,3,1,15,1.4324504032356344,1,0
1949,9,1,32,40,33,2,1,16,1.9201225937190431,0,0
1950,9,1,33,57,46,4,2,17,1.3458521195339015,1,0
1951,9,1,34,51,50,4,3,17,2.3075356088738768,0,0
1952,9,1,35,60,44,4,3,18,1.4422634304055464,1,0
1953,9,1,36,53,43,4,3,19,1.3994102421529533,1,0
1954,9,1,37,37,36,2,1,17,2.6366220576533124,1,0
1955,9,1,38,55,56,4,3,20,1.3883994720235933,1,0
1956,9,1,39,55,42,3,1,19,1.8563623225359152,1,0
1957,9,1,40,37,36,2,1,19,2.353005467838102,1,0
1958,9,1,41,50,42,3,1,21,1.4877510387664188,1,0
1959,9,1,42,44,35,2,1,20,2.054196759574552,1,0
1960,9,1,43,53,43,4,2,21,1.3665660071055754,1,0
1961,9,1,44,44,40,4,2,22,1.4654943189984806,1,0
1962,9,1,45,60,39,3,1,22,2.238983000514964,1,0
1963,9,1,46,58,49,4,3,24,2.363173141612606,0,0
1964,9,1,47,42,31,2,1,23,1.6653474086051574,1,0
1965,9,1,48,57,37,3,1,24,1.5091438407716848,1,0
1966,9,1,49,49,43,3,1,25,1.2787955805365527,1,0
1967,9,1,50,40,35,2,1,25,2.730846096685582,0,0
1968,9,1,51,61,47,4,3,26,1.355787685809446,1,0
1969,9,1,52,50,53,4,3,27,1.3476024831402356,1,0
1970,9,1,53,33,31,2,1,26,2.056989558917394,1,0
1971,9,1,54,40,40,2,1,27,2.1558168357805703,1,0
1972,9,1,55,50,36,3,1,29,1.2933347259786387,1,0
1973,9,1,56,48,48,4,2,27,1.2706595300437584,1,0
1974,9,1,57,52,35,3,1,30,1.5889891616038767,1,0
1975,9,1,58,55,39,4,2,28,1.59004456805269,1,0
1976,9,1,59,56,54,4,3,30,1.675350900457488,0,0
1977,9,1,60,49,40,4,3,31,1.427789821198985,1,0
1978,9,1,61,62,36,4,2,30,1.216884659981588,1,0
1979,9,1,62,42,38,2,1,30,1.6162740807262708,1,0
1980,9,1,63,49,38,4,2,31,1.3807136418108712,1,0
1981,9,1,64,43,33,2,1,32,1.4850876052205422,1,0
1982,9,1,65,54,56,4,3,33,1.1879865937439718,1,0
1983,9,1,66,46,37,2,1,33,1.5871237682517858,1,0
1984,9,1,67,54,38,4,2,34,1.2483563887758464,1,0
1985,9,1,68,44,34,3,1,34,1.3648699156933617,1,0
1986,9,1,69,57,42,4,2,35,1.5020730954302053,1,0
1987,9,1,70,51,51,4,3,35,3.7897215290286113,0,0
1988,9,1,71,47,44,3,1,35,1.2444399160726791,1,0
1989,9,1,72,35,33,2,1,36,1.5623643835137957,1,0
1990,9,1,73,41,38,2,1,37,1.5132429274626702,1,0
1991,9,1,74,53,32,3,1,37,1.6289597795253032,1,0
1992,9,1,75,49,34,3,1,38,1.2666529450175403,1,0
1993,9,1,76,54,38,4,2,37,1.4076510823547324,1,0
1994,9,1,77,53,45,4,2,38,1.1931926284023575,1,0
1995,9,1,78,58,48,4,3,39,1.4126444655844352,1,0
1996,9,1,79,34,41,2,1,40,1.3170247095495142,0,0
1997,9,2,1,46,50,4,3,1,1.1609604062150538,0,0
1998,9,2,2,42,39,3,1,1,1.6480649573313713,0,0
1999,9,2,3,36,28,2,1,1,2.123197881541273,0,0
2000,9,2,4,45,37,2,1,2,1.4234425842846576,1,0
2001,9,2,5,48,31,3,1,3,1.6695168102146454,1,0
2002,9,2,6,64,37,4,2,2,1.9171908712123693,0,0
2003,9,2,7,55,41,4,2,3,1.3111715045720302,1,0
2004,9,2,8,53,57,4,3,4,1.4142879914747937,1,0
2005,9,2,9,52,36,3,1,5,1.2868759934967784,1,0
2006,9,2,10,48,43,4,2,5,1.729146591927929,1,0
2007,9,2,11,47,42,3,1,6,1.7874482408810763,0,0
2008,9,2,12,58,39,4,2,6,1.7641996028910398,1,0
2009,9,2,13,55,33,3,1,7,1.327663425012361,1,0
2010,9,2,14,52,50,4,2,7,1.3131805997727497,1,0
2011,9,2,15,55,48,4,3,8,1.810919770336568,1,0
2012,9,2,16,44,50,4,3,9,2.315459349273169,1,0
2013,9,2,17,61,50,4,3,10,1.680717021023156,0,0
2014,9,2,18,51,36,4,2,9,1.1028830140662649,1,0
2015,9,2,19,57,45,4,3,11,1.8508729801956176,0,0
2016,9,2,20,53,40,4,2,11,1.1794409417830138,1,0
2017,9,2,21,58,48,4,2,12,1.426375672130689,1,0
2018,9,2,22,50,53,4,3,13,2.0426292727829605,1,0
2019,9,2,23,44,43,3,1,10,1.1568637088657852,1,0
2020,9,2,24,33,35,2,1,10,1.5048775001473589,1,0
2021,9,2,25,53,37,3,1,12,1.3320878035356143,1,0
2022,9,2,26,57,46,4,2,14,1.6191638190834965,1,0
2023,9,2,27,51,38,3,1,13,2.0974431652362,0,0
2024,9,2,28,35,30,2,1,12,1.4944326627132796,1,0
2025,9,2,29,56,46,4,2,15,1.672349204366128,1,0
2026,9,2,30,35,26,2,1,14,1.89237755561453,1,0
2027,9,2,31,54,48,4,3,17,1.4970513814323567,1,0
2028,9,2,32,51,41,4,2,17,1.1727036803031297,1,0
2029,9,2,33,51,36,3,1,15,1.994094570834932,1,0
2030,9,2,34,54,46,4,3,19,1.3627522761044022,1,0
2031,9,2,35,38,37,2,1,16,1.365792201665954,1,0
2032,9,2,36,47,42,4,2,19,1.2207209190637514,1,0
2033,9,2,37,37,32,2,1,17,1.4760084473477946,1,0
2034,9,2,38,42,34,2,1,18,1.1420962106062689,1,0
2035,9,2,39,43,38,3,1,18,1.6774268972312711,1,0
2036,9,2,40,40,42,2,1,20,1.5037599708089149,1,0
2037,9,2,41,58,35,3,1,20,1.2707953811973312,1,0
2038,9,2,42,56,47,4,3,21,1.5006429036375266,1,0
2039,9,2,43,50,53,4,3,22,1.3720434027368356,1,0
2040,9,2,44,54,34,3,1,22,1.3308432977423763,1,0
2041,9,2,45,60,34,4,2,23,1.175225801342549,1,0
2042,9,2,46,45,36,3,1,23,1.6431760224759269,1,0
2043,9,2,47,59,38,4,2,24,1.2306148425236645,1,0
2044,9,2,48,41,41,2,1,23,2.7729039754212863,0,0
2045,9,2,49,52,40,4,2,25,2.632363909058768,1,0
2046,9,2,50,60,29,3,1,24,1.4146736995235187,0,0
2047,9,2,51,52,34,4,2,26,1.5208226026284135,1,0
2048,9,2,52,60,50,4,3,27,1.1594479527948351,0,0
2049,9,2,53,38,34,2,1,26,1.2545478562997232,1,0
2050,9,2,54,62,47,4,2,28,1.2526322867674935,1,0
2051,9,2,55,51,46,4,3,28,1.4689960702153255,1,0
2052,9,2,56,37,40,2,1,27,1.5158961209717745,1,0
2053,9,2,57,55,52,4,3,29,1.5879654992686485,1,0
2054,9,2,58,49,40,3,1,28,1.3762824365962842,1,0
2055,9,2,59,53,54,4,3,31,1.711727265497302,1,0
2056,9,2,60,49,51,4,3,32,1.6085186182640427,1,0
2057,9,2,61,49,33,3,1,30,1.2047283710799093,1,0
2058,9,2,62,45,30,2,1,29,2.789075724047508,0,0
2059,9,2,63,57,43,4,2,32,1.3576848232755765,1,0
2060,9,2,64,32,39,2,1,31,1.732112106556542,1,0
2061,9,2,65,39,46,2,1,32,3.124524648962961,0,0
2062,9,2,66,49,42,4,2,34,1.2313343757691655,1,0
2063,9,2,67,30,33,2,1,33,1.525012825646172,1,0
2064,9,2,68,59,44,4,2,36,1.230819643257291,1,0
2065,9,2,69,48,55,4,3,35,1.9959650842051813,1,0
2066,9,2,70,40,41,3,1,33,1.2166129576739877,1,0
2067,9,2,71,52,31,3,1,34,1.5246022001742858,0,0
2068,9,2,72,56,44,4,3,37,1.34251830491894,1,0
2069,9,2,73,39,38,2,1,36,1.4699876471022435,0,0
2070,9,2,74,43,32,2,1,37,1.534294394911285,0,0
2071,9,2,75,49,44,3,1,37,1.556335732574098,1,0
2072,9,2,76,44,36,2,1,38,1.4123181497484438,0,0
2073,9,2,77,54,56,4,3,38,1.392545662883549,1,0
2074,9,2,78,40,39,2,1,39,1.5451792125891188,1,0
2075,9,2,79,47,35,3,1,39,2.111366884472318,1,0
2076,9,2,80,54,56,4,3,40,1.119970563307561,0,0
2077,9,3,1,51,37,4,2,1,1.5430728370397446,1,0
2078,9,3,2,42,42,2,1,1,1.3477021528315165,0,0
2079,9,3,3,55,35,3,1,1,1.8047323988275816,1,0
2080,9,3,4,62,41,4,2,2,1.4952276308958972,1,0
2081,9,3,5,44,47,4,3,2,2.4605517946179134,1,0
2082,9,3,6,46,33,3,1,3,1.634007776283852,1,0
2083,9,3,7,54,38,4,2,4,2.59652002592793,1,0
2084,9,3,8,52,39,3,1,4,1.3406211674532642,1,0
2085,9,3,9,47,44,3,1,5,1.5224142456663683,1,0
2086,9,3,10,53,33,3,1,6,1.55897868604643,1,0
2087,9,3,11,46,34,4,2,5,1.2875354518600943,1,0
2088,9,3,12,55,43,4,2,6,2.015521847630225,1,0
2089,9,3,13,59,45,4,3,7,1.3599782501619302,0,0
2090,9,3,14,49,53,4,3,8,1.8394553392745363,0,0
2091,9,3,15,57,46,3,1,8,1.3013315119719664,1,0
2092,9,3,16,48,30,2,1,7,1.7021507831750569,1,0
2093,9,3,17,46,40,3,1,9,1.204579890547393,1,0
2094,9,3,18,52,58,4,3,10,1.7408949860346183,1,0
2095,9,3,19,55,40,4,2,9,1.8130496979702,1,0
2096,9,3,20,48,35,4,2,10,1.5310585433135202,1,0
2097,9,3,21,44,31,2,1,10,1.5162886557118327,1,0
2098,9,3,22,56,40,4,3,12,1.5399960473459942,1,0
2099,9,3,23,48,36,4,2,12,1.3650706204130074,1,0
2100,9,3,24,42,32,2,1,11,1.6507164441677558,1,0
2101,9,3,25,40,39,2,1,12,1.6597938953677842,1,0
2102,9,3,26,58,49,4,3,13,1.8072251650946785,1,0
2103,9,3,27,56,34,3,1,13,1.3185026881801605,1,0
2104,9,3,28,53,44,4,3,15,1.5046508540017385,0,0
2105,9,3,29,56,46,4,2,15,1.6803743211280562,1,0
2106,9,3,30,54,40,3,1,15,1.2371657353351109,1,0
2107,9,3,31,55,42,4,3,17,0.9660061501658674,1,0
2108,9,3,32,35,38,2,1,15,1.0371798665860297,0,0
2109,9,3,33,51,54,4,3,18,1.2706718180875214,0,0
2110,9,3,34,50,32,3,1,17,1.0883564980031224,1,0
2111,9,3,35,50,31,3,1,18,0.9557490467382196,1,0
2112,9,3,36,45,39,2,1,17,1.0507141230928028,1,0
2113,9,3,37,61,51,4,3,20,1.5549017861017091,1,0
2114,9,3,38,30,33,2,1,18,1.7197776410162078,1,0
2115,9,3,39,43,37,2,1,19,1.317923102102668,1,0
2116,9,3,40,43,36,3,1,21,1.2883573854728638,1,0
2117,9,3,41,52,40,4,2,19,1.1192431793674589,1,0
2118,9,3,42,58,34,4,2,20,1.0151965557979563,1,0
2119,9,3,43,45,36,2,1,21,1.7556775030147946,0,0
2120,9,3,44,36,29,2,1,22,0.7886514451938638,1,0
2121,9,3,45,50,52,4,3,22,1.522501627312522,1,0
2122,9,3,46,64,47,4,3,23,1.0202558165970004,0,0
2123,9,3,47,56,42,3,1,24,1.1600005734421757,1,0
2124,9,3,48,49,48,4,3,25,1.4500332289189828,1,0
2125,9,3,49,41,30,2,1,24,1.3903710204231174,0,0
2126,9,3,50,50,37,3,1,26,1.2429107372590806,1,0
2127,9,3,51,52,35,3,1,27,1.1593435044201217,1,0
2128,9,3,52,49,36,3,1,28,1.0240814943081205,1,0
2129,9,3,53,53,32,4,2,24,1.0831159885542547,1,0
2130,9,3,54,59,43,4,2,25,1.0803392319357954,1,0
