,participant,block_label,trial_block,f_cor,f_inc,cor_option,inc_option,times_seen,rt,accuracy
0,1,0.0,1.0,43.0,39.0,2,1,1.0,1.2440824150808112,0.0
1,1,0.0,2.0,60.0,50.0,4,3,1.0,1.1018207586012068,1.0
2,1,0.0,3.0,44.0,36.0,4,2,2.0,1.0299232879742704,0.0
3,1,0.0,4.0,55.0,55.0,4,3,2.5,1.3680067775831048,0.0
4,1,0.0,5.0,52.0,49.0,4,3,3.5,1.0393291640184543,1.0
5,1,0.0,6.0,60.0,35.0,3,1,3.0,1.2414981543915928,0.0
6,1,0.0,7.0,56.0,51.0,4,3,5.0,1.0175488060376665,1.0
7,1,0.0,8.0,36.0,40.0,2,1,3.0,1.1387933335563505,1.0
8,1,0.0,9.0,48.0,32.0,3,1,5.0,1.1202802511425034,1.0
9,1,0.0,10.0,49.0,50.0,4,2,5.0,1.138936012326667,0.0
10,1,0.0,11.0,62.0,37.0,4,2,6.0,1.069218659651597,1.0
11,1,0.0,12.0,50.0,42.0,4,2,7.0,1.2465987497516835,1.0
12,1,0.0,13.0,49.0,56.0,4,3,8.0,1.4034675719831284,0.0
13,1,0.0,14.0,48.0,38.0,3,1,6.5,1.2634143644072535,1.0
14,1,0.0,15.0,57.0,53.0,4,3,9.5,1.4325259125807857,0.0
15,1,0.0,16.0,48.0,28.0,3,1,8.0,1.1712896181061296,1.0
16,1,0.0,17.0,53.0,41.0,4,2,9.0,1.216336855701229,1.0
17,1,0.0,18.0,59.0,39.0,4,2,10.0,1.27985894599351,1.0
18,1,0.0,19.0,53.0,36.0,3,1,9.0,1.2527417876081015,1.0
19,1,0.0,20.0,48.0,31.0,2,1,8.5,1.5069100215796425,0.0
20,1,0.0,21.0,40.0,34.0,2,1,9.5,1.2636369159808964,1.0
21,1,0.0,22.0,54.0,47.0,4,3,12.5,1.3068064600029174,0.0
22,1,0.0,23.0,55.0,38.0,4,2,12.5,1.181139914625419,1.0
23,1,0.0,24.0,46.0,38.0,3,1,11.5,1.663861105971591,1.0
24,1,0.0,25.0,51.0,52.0,4,3,14.5,1.6161203799210853,1.0
25,1,0.0,26.0,43.0,41.0,2,1,11.5,1.5274250441516417,1.0
26,1,0.0,27.0,61.0,53.0,4,3,15.5,1.5656906027943478,1.0
27,1,0.0,28.0,38.0,34.0,2,1,12.5,1.3598112817262518,1.0
28,1,0.0,29.0,56.0,40.0,4,2,15.5,1.3258899161610316,1.0
29,1,0.0,30.0,42.0,37.0,3,1,14.5,1.247650067003633,1.0
30,1,0.0,31.0,52.0,26.0,3,1,15.5,1.2967264438375423,1.0
31,1,0.0,32.0,45.0,35.0,2,1,15.0,1.4086893418962063,1.0
32,1,0.0,33.0,50.0,42.0,3,1,17.0,1.2309170558473852,1.0
33,1,0.0,34.0,50.0,35.0,4,2,17.0,1.4394352514864297,1.0
34,1,0.0,35.0,44.0,34.0,2,1,17.0,1.3044979994247117,1.0
35,1,0.0,36.0,51.0,40.0,4,3,19.0,1.8457731243715896,1.0
36,1,0.0,37.0,60.0,40.0,4,2,19.0,1.898259796877028,1.0
37,1,0.0,38.0,48.0,56.0,4,3,20.5,1.5284118487552405,0.0
38,1,0.0,39.0,64.0,43.0,4,2,20.5,1.2224061648148563,1.0
39,1,0.0,40.0,51.0,46.0,4,3,22.0,1.0051831988585036,1.0
40,1,0.0,41.0,58.0,37.0,4,2,22.0,1.2244992418918628,1.0
41,1,0.0,42.0,57.0,41.0,3,1,20.0,1.2428088875903995,1.0
42,1,0.0,43.0,54.0,39.0,4,2,23.0,1.7508995930584206,1.0
43,1,0.0,44.0,40.0,42.0,2,1,20.5,1.4776192306408116,1.0
44,1,0.0,45.0,47.0,33.0,3,1,21.5,1.5318992865377368,1.0
45,1,0.0,46.0,52.0,47.0,4,2,24.5,1.3847292072996424,1.0
46,1,0.0,47.0,58.0,34.0,4,2,25.5,1.2119049390748842,1.0
47,1,0.0,48.0,46.0,35.0,4,2,26.5,1.2807781659148532,1.0
48,1,0.0,49.0,46.0,37.0,2,1,23.5,1.2199007529206938,1.0
49,1,0.0,50.0,45.0,33.0,2,1,24.5,1.2838781864647901,1.0
50,1,0.0,51.0,58.0,39.0,3,1,23.5,1.226722026939569,1.0
51,1,0.0,52.0,38.0,36.0,2,1,26.0,1.4863427744812725,1.0
52,1,0.0,53.0,51.0,40.0,3,1,25.0,1.0694927530794305,1.0
53,1,0.0,54.0,30.0,29.0,2,1,27.5,1.3583626484733031,1.0
54,1,0.0,55.0,44.0,43.0,3,1,26.5,1.0812671649728145,1.0
55,1,0.0,56.0,57.0,46.0,4,2,29.5,1.1695948810402117,1.0
56,1,0.0,57.0,53.0,55.0,4,3,28.5,1.4767600859895538,0.0
57,1,0.0,58.0,56.0,47.0,4,3,29.5,1.325771813638312,1.0
58,1,0.0,59.0,53.0,54.0,4,3,30.5,1.1721948432214049,1.0
59,1,0.0,60.0,49.0,32.0,3,1,29.0,1.4197906376784886,1.0
60,1,0.0,61.0,59.0,52.0,4,3,32.0,2.4884447263129914,0.0
61,1,0.0,62.0,45.0,35.0,3,1,30.5,1.2281423292406544,1.0
62,1,0.0,63.0,54.0,37.0,3,1,31.5,1.176391920149399,1.0
63,1,0.0,64.0,54.0,42.0,4,2,32.5,1.0478933035874434,1.0
64,1,0.0,65.0,33.0,36.0,2,1,31.5,1.3436486443124522,1.0
65,1,0.0,66.0,55.0,43.0,4,3,34.5,1.7855555153537352,1.0
66,1,0.0,67.0,41.0,31.0,2,1,32.5,1.6416882107050697,0.0
67,1,0.0,68.0,32.0,30.0,2,1,33.5,1.247007671202482,1.0
68,1,0.0,69.0,48.0,50.0,4,3,35.5,1.4615176925080957,1.0
69,1,0.0,70.0,34.0,44.0,2,1,34.5,1.359110858673375,1.0
70,1,0.0,71.0,44.0,33.0,3,1,35.5,1.451641113058031,1.0
71,1,0.0,72.0,42.0,46.0,2,1,36.0,1.4411535407889462,1.0
72,1,0.0,73.0,45.0,39.0,3,1,37.0,1.3549158297655597,1.0
73,1,0.0,74.0,37.0,36.0,2,1,37.5,1.2959239610909208,1.0
74,1,0.0,75.0,47.0,51.0,4,3,37.5,1.5526406153894643,1.0
75,1,0.0,76.0,49.0,38.0,3,1,39.0,1.6154988056623552,1.0
76,1,0.0,77.0,44.0,30.0,2,1,39.0,1.1817099470317771,0.0
77,1,0.0,78.0,57.0,50.0,4,3,39.0,1.4866298387050847,1.0
78,1,0.0,79.0,52.0,39.0,4,2,39.0,2.0937802296375594,1.0
79,1,0.0,80.0,54.0,41.0,4,2,40.0,1.1090386659461728,1.0
80,1,1.0,1.0,55.0,44.0,4,2,1.0,1.2747641533587741,0.0
81,1,1.0,2.0,52.0,45.0,4,3,1.5,1.8701903089031475,0.0
82,1,1.0,3.0,57.0,36.0,3,1,1.5,2.36402474282022,0.0
83,1,1.0,4.0,46.0,43.0,4,3,3.0,1.1335333339247882,0.0
84,1,1.0,5.0,53.0,38.0,3,1,3.0,2.0689507102870266,1.0
85,1,1.0,6.0,55.0,39.0,3,1,4.0,1.1790785818684526,1.0
86,1,1.0,7.0,60.0,47.0,4,3,5.0,1.1125694534994182,1.0
87,1,1.0,8.0,54.0,46.0,4,3,6.0,1.135401470069155,1.0
88,1,1.0,9.0,50.0,26.0,3,1,6.0,1.259248007788301,1.0
89,1,1.0,10.0,53.0,37.0,4,2,4.0,1.4602342662528829,1.0
90,1,1.0,11.0,36.0,33.0,2,1,4.0,1.5221609484797227,1.0
91,1,1.0,12.0,58.0,43.0,4,2,5.5,1.3146974834608045,1.0
92,1,1.0,13.0,39.0,36.0,2,1,5.5,1.4333597983113575,1.0
93,1,1.0,14.0,40.0,29.0,2,1,6.5,1.1698348407899175,1.0
94,1,1.0,15.0,33.0,43.0,2,1,7.5,1.0712765790403864,1.0
95,1,1.0,16.0,49.0,40.0,4,2,8.0,1.1717811430544316,1.0
96,1,1.0,17.0,34.0,34.0,2,1,9.0,1.849992046853004,1.0
97,1,1.0,18.0,60.0,44.0,4,3,9.0,1.128029278502254,1.0
98,1,1.0,19.0,55.0,42.0,3,1,10.0,1.7749870462694162,1.0
99,1,1.0,20.0,50.0,35.0,3,1,11.0,1.1277391422481742,1.0
100,1,1.0,21.0,47.0,42.0,4,2,10.0,1.1467662778386511,1.0
101,1,1.0,22.0,57.0,53.0,4,3,11.5,1.2817403942708552,1.0
102,1,1.0,23.0,52.0,44.0,4,3,12.5,1.2635034533041107,1.0
103,1,1.0,24.0,42.0,39.0,2,1,11.5,1.9327703097087576,1.0
104,1,1.0,25.0,61.0,37.0,4,2,12.5,1.300853205390922,1.0
105,1,1.0,26.0,49.0,52.0,4,3,14.0,1.0943714249242475,1.0
106,1,1.0,27.0,58.0,36.0,4,2,14.0,1.5361158196619726,1.0
107,1,1.0,28.0,44.0,37.0,2,1,13.5,1.7259287602846598,1.0
108,1,1.0,29.0,54.0,43.0,4,2,15.5,1.3848066907476095,1.0
109,1,1.0,30.0,40.0,36.0,3,1,14.5,1.4148217983120048,1.0
110,1,1.0,31.0,58.0,35.0,3,1,15.5,1.1082703168767694,1.0
111,1,1.0,32.0,54.0,45.0,4,3,17.0,1.5823208715828514,0.0
112,1,1.0,33.0,56.0,44.0,3,1,17.0,1.2872755113394303,1.0
113,1,1.0,34.0,39.0,42.0,2,1,16.5,1.97574631578118,1.0
114,1,1.0,35.0,51.0,48.0,4,3,18.5,1.8613391051103465,0.0
115,1,1.0,36.0,51.0,34.0,4,2,18.0,1.215496143236123,1.0
116,1,1.0,37.0,53.0,30.0,3,1,19.0,1.4188601536425267,1.0
117,1,1.0,38.0,41.0,37.0,2,1,18.5,1.9263391836184385,1.0
118,1,1.0,39.0,50.0,30.0,3,1,20.5,1.4055872733260912,1.0
119,1,1.0,40.0,59.0,45.0,4,2,19.5,0.9964060651454928,1.0
120,1,1.0,41.0,53.0,50.0,4,3,21.5,1.2394928008661736,1.0
121,1,1.0,42.0,48.0,46.0,3,1,22.0,1.0322494980637202,1.0
122,1,1.0,43.0,62.0,51.0,4,3,23.0,1.6620632852027484,0.0
123,1,1.0,44.0,38.0,34.0,2,1,21.0,2.1063871619144265,1.0
124,1,1.0,45.0,51.0,42.0,4,3,24.0,1.089468122217113,1.0
125,1,1.0,46.0,59.0,45.0,4,2,22.5,1.3533112056084065,1.0
126,1,1.0,47.0,48.0,52.0,4,3,25.5,1.5725743414413955,0.0
127,1,1.0,48.0,48.0,39.0,3,1,25.0,1.4190601769896602,1.0
128,1,1.0,49.0,56.0,51.0,4,3,27.0,1.598911886643691,1.0
129,1,1.0,50.0,48.0,52.0,4,3,28.0,1.0222128316681849,1.0
130,1,1.0,51.0,49.0,34.0,3,1,27.0,1.0835005314611408,1.0
131,1,1.0,52.0,49.0,37.0,3,1,28.0,0.9938238524764528,1.0
132,1,1.0,53.0,54.0,33.0,3,1,29.0,1.116555584303569,1.0
133,1,1.0,54.0,38.0,38.0,2,1,24.5,1.6548941890150672,0.0
134,1,1.0,55.0,35.0,31.0,2,1,25.5,1.253484195083729,0.0
135,1,1.0,56.0,56.0,46.0,4,2,26.0,1.4197930270356665,1.0
136,1,1.0,57.0,35.0,33.0,2,1,27.0,1.8253011102324308,1.0
137,1,1.0,58.0,54.0,47.0,4,2,27.5,1.252672837580576,1.0
138,1,1.0,59.0,47.0,41.0,3,1,31.5,1.3108864584191906,1.0
139,1,1.0,60.0,41.0,40.0,2,1,29.0,1.2594736313931207,1.0
140,1,1.0,61.0,40.0,28.0,2,1,30.0,1.018483727451894,1.0
141,1,1.0,62.0,64.0,50.0,4,2,29.5,1.1256976070244489,1.0
142,1,1.0,63.0,55.0,30.0,4,2,30.5,1.0671853165113134,1.0
143,1,1.0,64.0,39.0,31.0,2,1,32.0,1.3845431787594862,1.0
144,1,1.0,65.0,44.0,48.0,4,2,32.0,1.1424971788510447,1.0
145,1,1.0,66.0,53.0,46.0,4,2,33.0,0.9871312624209168,1.0
146,1,1.0,67.0,56.0,38.0,3,1,34.0,1.741653121285708,1.0
147,1,1.0,68.0,38.0,41.0,2,1,34.5,1.5166995601539384,1.0
148,1,1.0,69.0,56.0,51.0,4,3,34.5,1.7987727577756232,1.0
149,1,1.0,70.0,41.0,35.0,2,1,35.5,1.413965384354924,1.0
150,1,1.0,71.0,49.0,36.0,3,1,36.5,1.3260530751367696,1.0
151,1,1.0,72.0,57.0,40.0,4,2,35.5,2.4049182532562554,1.0
152,1,1.0,73.0,43.0,32.0,2,1,37.5,1.2723096006429842,1.0
153,1,1.0,74.0,32.0,32.0,2,1,38.5,1.3866447892560243,1.0
154,1,1.0,75.0,50.0,54.0,4,3,36.5,1.1905290651675386,1.0
155,1,1.0,76.0,46.0,40.0,3,1,39.0,1.145762406396898,1.0
156,1,1.0,77.0,57.0,60.0,4,3,38.0,1.3021222955030678,1.0
157,1,1.0,78.0,52.0,47.0,4,3,39.0,1.2039944594216652,1.0
158,1,1.0,79.0,50.0,37.0,4,2,39.0,1.0890178990175627,1.0
159,1,1.0,80.0,55.0,42.0,4,2,40.0,1.0144593669301685,1.0
160,1,2.0,1.0,44.0,37.0,3,1,1.0,0.9820412485014458,1.0
161,1,2.0,2.0,58.0,39.0,4,2,1.0,1.2706264690277749,0.0
162,1,2.0,3.0,53.0,53.0,4,3,2.0,1.2599224892455825,1.0
163,1,2.0,4.0,61.0,41.0,4,2,2.5,1.5176665672242962,1.0
164,1,2.0,5.0,53.0,43.0,4,3,3.5,1.6137931458215462,1.0
165,1,2.0,6.0,51.0,31.0,3,1,3.0,1.5211895040310992,1.0
166,1,2.0,7.0,43.0,39.0,2,1,3.0,1.4769768348387515,0.0
167,1,2.0,8.0,52.0,35.0,4,2,4.5,0.933008562773466,1.0
168,1,2.0,9.0,38.0,31.0,2,1,4.5,1.5215246967391067,1.0
169,1,2.0,10.0,46.0,41.0,2,1,5.5,1.7926071916926958,1.0
170,1,2.0,11.0,43.0,32.0,2,1,6.5,1.2151333022484323,1.0
171,1,2.0,12.0,49.0,42.0,3,1,6.0,1.2354213358694324,1.0
172,1,2.0,13.0,40.0,34.0,2,1,8.0,1.4301013975009482,1.0
173,1,2.0,14.0,60.0,42.0,4,2,7.5,1.4358099136479725,1.0
174,1,2.0,15.0,59.0,58.0,4,3,6.5,1.1146813040977577,1.0
175,1,2.0,16.0,53.0,37.0,4,2,9.0,1.1104190318465044,1.0
176,1,2.0,17.0,47.0,46.0,4,3,8.0,1.0623557425478791,1.0
177,1,2.0,18.0,36.0,44.0,2,1,10.0,1.163403714699598,1.0
178,1,2.0,19.0,45.0,35.0,2,1,11.0,1.2624582801136055,1.0
179,1,2.0,20.0,58.0,34.0,4,2,11.5,0.9941952268827664,1.0
180,1,2.0,21.0,51.0,56.0,4,3,9.5,1.0702030748980178,0.0
181,1,2.0,22.0,43.0,36.0,2,1,12.5,1.4474358440475044,1.0
182,1,2.0,23.0,55.0,50.0,4,3,10.5,1.5275144743854983,0.0
183,1,2.0,24.0,54.0,55.0,4,3,11.5,1.545770871548484,1.0
184,1,2.0,25.0,48.0,33.0,3,1,11.5,1.5210604787316695,1.0
185,1,2.0,26.0,30.0,40.0,2,1,14.0,1.290255040007651,1.0
186,1,2.0,27.0,53.0,36.0,3,1,13.0,1.6900836206823442,1.0
187,1,2.0,28.0,56.0,50.0,4,2,15.0,1.117756748399188,1.0
188,1,2.0,29.0,47.0,42.0,3,1,14.0,1.6130527863660973,1.0
189,1,2.0,30.0,48.0,39.0,4,2,16.0,1.2276695778136857,1.0
190,1,2.0,31.0,56.0,52.0,4,3,15.0,1.8120108217408413,0.0
191,1,2.0,32.0,44.0,34.0,3,1,15.5,1.1559885147007662,1.0
192,1,2.0,33.0,53.0,35.0,3,1,16.5,1.0926855626157703,1.0
193,1,2.0,34.0,44.0,55.0,4,3,17.0,2.336632808334798,1.0
194,1,2.0,35.0,45.0,37.0,3,1,18.0,1.070277827650898,1.0
195,1,2.0,36.0,62.0,40.0,4,2,18.0,1.4912750908124508,0.0
196,1,2.0,37.0,51.0,45.0,4,2,19.0,0.9838697895793302,1.0
197,1,2.0,38.0,54.0,56.0,4,3,19.5,2.9751971049172425,1.0
198,1,2.0,39.0,52.0,49.0,4,3,20.5,1.0438378814178575,0.0
199,1,2.0,40.0,37.0,26.0,2,1,19.5,1.218380438946042,1.0
200,1,2.0,41.0,55.0,44.0,4,2,21.5,1.0116819096283507,1.0
201,1,2.0,42.0,54.0,52.0,4,3,22.0,1.6127049641972917,0.0
202,1,2.0,43.0,40.0,40.0,2,1,21.0,1.0858301549187672,1.0
203,1,2.0,44.0,57.0,42.0,4,2,23.5,1.021934983536994,1.0
204,1,2.0,45.0,39.0,32.0,2,1,22.5,1.1502718064703004,1.0
205,1,2.0,46.0,41.0,36.0,2,1,23.5,1.2411861725840936,1.0
206,1,2.0,47.0,48.0,48.0,4,3,23.5,1.0397237493252758,0.0
207,1,2.0,48.0,59.0,51.0,4,3,24.5,0.8887658559460759,0.0
208,1,2.0,49.0,57.0,42.0,4,3,25.5,1.821864190291308,1.0
209,1,2.0,50.0,48.0,29.0,3,1,24.0,1.2899300874023538,1.0
210,1,2.0,51.0,52.0,37.0,4,2,27.0,1.1832917016254214,0.0
211,1,2.0,52.0,50.0,39.0,3,1,25.0,1.0157868256292204,1.0
212,1,2.0,53.0,40.0,30.0,3,1,26.0,1.1371371675468254,1.0
213,1,2.0,54.0,60.0,38.0,3,1,27.0,1.0774452171544908,1.0
214,1,2.0,55.0,55.0,34.0,4,2,28.0,0.9180890738780364,1.0
215,1,2.0,56.0,49.0,49.0,4,3,29.5,1.6542292649864976,0.0
216,1,2.0,57.0,46.0,34.0,2,1,27.5,1.5768318349792023,1.0
217,1,2.0,58.0,51.0,39.0,3,1,29.0,1.262481832350204,1.0
218,1,2.0,59.0,46.0,28.0,3,1,30.0,1.0214274157597174,1.0
219,1,2.0,60.0,35.0,46.0,2,1,29.5,1.0007413834646286,1.0
220,1,2.0,61.0,57.0,37.0,3,1,31.5,0.9735556163896036,1.0
221,1,2.0,62.0,50.0,52.0,4,3,32.0,1.2054338765819919,1.0
222,1,2.0,63.0,45.0,36.0,3,1,33.0,0.9980318521820664,1.0
223,1,2.0,64.0,56.0,42.0,4,2,31.0,1.2201031656250052,1.0
224,1,2.0,65.0,32.0,30.0,2,1,32.0,1.2595811524761302,1.0
225,1,2.0,66.0,51.0,41.0,4,2,32.5,1.0747274937893962,1.0
226,1,2.0,67.0,54.0,43.0,3,1,34.5,1.045806370572791,1.0
227,1,2.0,68.0,57.0,44.0,4,2,33.5,1.3635543807495196,1.0
228,1,2.0,69.0,38.0,41.0,2,1,34.5,1.0017449135702918,1.0
229,1,2.0,70.0,46.0,47.0,4,3,35.5,1.2402754860804637,1.0
230,1,2.0,71.0,40.0,35.0,2,1,35.5,1.199654021049355,1.0
231,1,2.0,72.0,64.0,50.0,4,3,36.5,1.4033436667350545,1.0
232,1,2.0,73.0,38.0,38.0,2,1,36.5,1.2438458686983722,1.0
233,1,2.0,74.0,49.0,36.0,4,2,37.0,1.0570831134555192,1.0
234,1,2.0,75.0,54.0,47.0,4,2,38.0,0.8723793016115451,1.0
235,1,2.0,76.0,50.0,33.0,3,1,38.0,1.1015374490807517,1.0
236,1,2.0,77.0,60.0,33.0,4,2,39.0,0.965255330144828,1.0
237,1,2.0,78.0,54.0,38.0,3,1,39.0,1.0126711035900369,1.0
238,1,2.0,79.0,50.0,47.0,4,3,40.0,1.6465153953131448,1.0
239,1,2.0,80.0,48.0,33.0,2,1,40.0,0.9620102414683059,1.0
240,2,0.0,1.0,52.0,46.0,3,1,1.0,0.88008029554112,0.0
241,2,0.0,2.0,55.0,40.0,4,2,1.0,1.3946424810656026,1.0
242,2,0.0,3.0,49.0,41.0,4,2,2.0,1.0289004555797874,1.0
243,2,0.0,4.0,33.0,32.0,2,1,2.5,1.195417788377199,0.0
244,2,0.0,5.0,42.0,40.0,2,1,3.5,1.0515848675468078,0.0
245,2,0.0,6.0,42.0,35.0,3,1,3.0,1.055160005693324,0.0
246,2,0.0,7.0,54.0,47.0,4,3,3.0,1.5622667618308697,0.0
247,2,0.0,8.0,59.0,38.0,4,2,4.5,1.3676217548891143,0.0
248,2,0.0,9.0,50.0,39.0,2,1,5.5,1.1369103146862471,0.0
249,2,0.0,10.0,58.0,51.0,4,3,4.5,1.1235941709610415,1.0
250,2,0.0,11.0,52.0,40.0,4,2,6.5,0.9521800526126754,1.0
251,2,0.0,12.0,53.0,46.0,4,3,6.0,1.0910431422980764,0.0
252,2,0.0,13.0,39.0,36.0,2,1,7.0,1.2441589977324838,0.0
253,2,0.0,14.0,46.0,33.0,2,1,8.0,0.8527865017204022,0.0
254,2,0.0,15.0,61.0,37.0,4,2,9.0,1.0244088341478346,1.0
255,2,0.0,16.0,48.0,33.0,2,1,9.5,1.0813287608152675,0.0
256,2,0.0,17.0,34.0,42.0,2,1,10.5,1.1025884423434036,0.0
257,2,0.0,18.0,47.0,53.0,4,3,7.5,1.0758633118939542,1.0
258,2,0.0,19.0,50.0,26.0,3,1,8.5,1.1121942794379718,1.0
259,2,0.0,20.0,45.0,41.0,2,1,12.0,1.138408090721896,0.0
260,2,0.0,21.0,47.0,29.0,3,1,10.0,0.9364482842302096,0.0
261,2,0.0,22.0,55.0,54.0,4,3,9.5,0.8511149863961691,1.0
262,2,0.0,23.0,50.0,43.0,3,1,11.5,1.0912581830689303,1.0
263,2,0.0,24.0,56.0,41.0,4,2,12.5,0.7557447459230389,1.0
264,2,0.0,25.0,51.0,39.0,4,2,13.5,0.7525368837586939,0.0
265,2,0.0,26.0,60.0,43.0,4,3,12.0,0.9897620113069934,1.0
266,2,0.0,27.0,52.0,39.0,4,2,15.0,0.8642877696065625,0.0
267,2,0.0,28.0,62.0,58.0,4,3,13.5,0.7647307194620225,1.0
268,2,0.0,29.0,50.0,35.0,3,1,13.5,1.0579910345068129,0.0
269,2,0.0,30.0,48.0,40.0,4,2,16.5,0.9176858063192412,1.0
270,2,0.0,31.0,51.0,38.0,3,1,14.5,1.006944451554773,1.0
271,2,0.0,32.0,36.0,40.0,2,1,17.0,0.9662932125274892,0.0
272,2,0.0,33.0,45.0,30.0,2,1,18.0,1.1015497612879699,1.0
273,2,0.0,34.0,55.0,39.0,3,1,16.5,0.9789857380183092,1.0
274,2,0.0,35.0,56.0,40.0,4,2,18.5,0.6931009800737229,0.0
275,2,0.0,36.0,53.0,47.0,4,3,17.0,1.018977860017003,1.0
276,2,0.0,37.0,48.0,49.0,4,3,18.0,0.9755454270216432,1.0
277,2,0.0,38.0,60.0,36.0,3,1,18.5,0.7400867058040603,1.0
278,2,0.0,39.0,54.0,35.0,4,2,20.5,1.0997529761816622,0.0
279,2,0.0,40.0,57.0,55.0,4,3,20.0,0.7292906351112833,0.0
280,2,0.0,41.0,44.0,45.0,4,3,21.0,0.7310532867622896,1.0
281,2,0.0,42.0,32.0,34.0,2,1,21.0,1.119108352217154,0.0
282,2,0.0,43.0,60.0,43.0,4,2,23.0,1.2747756834623942,0.0
283,2,0.0,44.0,34.0,39.0,2,1,22.5,0.98482085226442,1.0
284,2,0.0,45.0,49.0,43.0,4,2,24.5,1.1136084285062682,1.0
285,2,0.0,46.0,54.0,36.0,4,2,25.5,1.3135055502707471,0.0
286,2,0.0,47.0,53.0,30.0,3,1,21.5,1.00276378590479,0.0
287,2,0.0,48.0,43.0,38.0,2,1,25.0,1.3059009576818426,1.0
288,2,0.0,49.0,44.0,28.0,3,1,23.0,1.1320363985523727,1.0
289,2,0.0,50.0,56.0,30.0,4,2,27.0,1.5366540407012508,0.0
290,2,0.0,51.0,46.0,37.0,3,1,24.0,1.0629195641704428,1.0
291,2,0.0,52.0,55.0,56.0,4,3,25.5,1.0144538118020137,0.0
292,2,0.0,53.0,48.0,31.0,3,1,25.5,0.9474904571397929,1.0
293,2,0.0,54.0,53.0,44.0,4,2,28.5,1.5198443377894364,0.0
294,2,0.0,55.0,54.0,41.0,3,1,26.5,1.0605855184721804,1.0
295,2,0.0,56.0,41.0,33.0,2,1,29.0,1.576100027409666,0.0
296,2,0.0,57.0,38.0,36.0,2,1,30.0,1.11131329494674,1.0
297,2,0.0,58.0,58.0,53.0,4,3,28.0,1.3504126905463636,0.0
298,2,0.0,59.0,37.0,37.0,2,1,31.0,1.3209084141353742,1.0
299,2,0.0,60.0,46.0,44.0,4,2,31.5,1.7177890258890331,0.0
300,2,0.0,61.0,35.0,32.0,2,1,32.5,1.327439850877454,1.0
301,2,0.0,62.0,51.0,40.0,4,3,29.5,1.3574042462696525,0.0
302,2,0.0,63.0,59.0,48.0,4,3,30.5,1.591196572181616,1.0
303,2,0.0,64.0,57.0,52.0,4,3,31.5,1.1398133650918678,1.0
304,2,0.0,65.0,47.0,42.0,2,1,33.5,1.6026425438703882,1.0
305,2,0.0,66.0,50.0,36.0,3,1,32.0,1.1483975878572892,1.0
306,2,0.0,67.0,49.0,34.0,3,1,33.0,1.2336066399129777,1.0
307,2,0.0,68.0,50.0,37.0,4,2,35.0,1.303979585462912,1.0
308,2,0.0,69.0,50.0,52.0,4,3,34.0,1.8047740416432128,1.0
309,2,0.0,70.0,64.0,46.0,4,2,36.5,1.2344845523921322,1.0
310,2,0.0,71.0,48.0,38.0,3,1,34.5,1.2097357490265497,1.0
311,2,0.0,72.0,44.0,31.0,3,1,35.5,1.2495548144042914,1.0
312,2,0.0,73.0,51.0,42.0,4,2,37.5,1.4741918648369392,1.0
313,2,0.0,74.0,54.0,56.0,4,3,37.0,1.4679761625593528,1.0
314,2,0.0,75.0,51.0,44.0,3,1,37.0,1.1039053110634995,1.0
315,2,0.0,76.0,52.0,49.0,4,3,38.5,1.3063187511797878,1.0
316,2,0.0,77.0,38.0,37.0,2,1,38.5,1.1159653436197914,1.0
317,2,0.0,78.0,57.0,57.0,4,3,39.5,1.1633446280939097,0.0
318,2,0.0,79.0,45.0,35.0,3,1,39.5,0.9776227891334202,1.0
319,2,1.0,1.0,43.0,39.0,2,1,1.0,1.6409720252440818,0.0
320,2,1.0,2.0,49.0,28.0,3,1,1.5,1.941464878210354,0.0
321,2,1.0,3.0,30.0,36.0,2,1,2.5,1.1577238719492016,1.0
322,2,1.0,4.0,37.0,39.0,2,1,3.5,1.3379969873813025,1.0
323,2,1.0,5.0,55.0,51.0,4,3,1.5,1.3936727495902232,0.0
324,2,1.0,6.0,52.0,50.0,4,3,2.5,1.3906126852889429,1.0
325,2,1.0,7.0,56.0,43.0,4,3,3.5,1.2387631810606765,1.0
326,2,1.0,8.0,51.0,36.0,3,1,5.0,1.7043462470428494,0.0
327,2,1.0,9.0,44.0,29.0,2,1,5.0,1.7265637133377822,1.0
328,2,1.0,10.0,52.0,48.0,4,3,5.0,1.788947382254264,1.0
329,2,1.0,11.0,48.0,35.0,2,1,6.0,1.6454165425066094,0.0
330,2,1.0,12.0,50.0,33.0,4,2,5.5,1.3599178339454738,1.0
331,2,1.0,13.0,57.0,42.0,3,1,7.5,1.832853246279228,0.0
332,2,1.0,14.0,38.0,35.0,2,1,8.0,2.3129532709581326,0.0
333,2,1.0,15.0,54.0,43.0,4,2,7.0,1.1489304111000822,1.0
334,2,1.0,16.0,59.0,45.0,4,2,8.0,1.022537979442859,1.0
335,2,1.0,17.0,40.0,37.0,2,1,10.0,1.2320392316287323,1.0
336,2,1.0,18.0,46.0,46.0,2,1,11.0,1.068728395655853,1.0
337,2,1.0,19.0,54.0,45.0,4,3,8.0,1.2525496838043182,1.0
338,2,1.0,20.0,60.0,48.0,4,3,9.0,0.9070300241291988,1.0
339,2,1.0,21.0,52.0,26.0,3,1,11.0,1.5327949122038262,1.0
340,2,1.0,22.0,50.0,56.0,4,3,10.5,0.9965897264437444,1.0
341,2,1.0,23.0,40.0,33.0,2,1,12.5,1.2756358465458106,1.0
342,2,1.0,24.0,57.0,36.0,4,2,12.0,1.2490923060804562,0.0
343,2,1.0,25.0,54.0,46.0,4,2,13.0,1.7721998022307162,0.0
344,2,1.0,26.0,47.0,37.0,3,1,13.0,1.8478962015269644,1.0
345,2,1.0,27.0,51.0,56.0,4,3,13.0,1.0601513409164909,1.0
346,2,1.0,28.0,55.0,45.0,4,3,14.0,1.6499064572644784,0.0
347,2,1.0,29.0,53.0,41.0,3,1,15.0,2.2475730259684497,1.0
348,2,1.0,30.0,52.0,42.0,4,3,15.5,1.0916623231842095,1.0
349,2,1.0,31.0,32.0,34.0,2,1,15.5,1.4991707276949455,1.0
350,2,1.0,32.0,46.0,30.0,3,1,17.0,2.0116108362799423,1.0
351,2,1.0,33.0,42.0,38.0,2,1,17.0,1.2441934725220565,1.0
352,2,1.0,34.0,61.0,51.0,4,3,17.0,1.2574020958627443,1.0
353,2,1.0,35.0,49.0,60.0,4,3,18.0,0.9055520454985526,1.0
354,2,1.0,36.0,44.0,32.0,3,1,19.5,1.8869462401489727,1.0
355,2,1.0,37.0,58.0,39.0,4,2,17.5,1.115978655667277,0.0
356,2,1.0,38.0,40.0,40.0,3,1,20.5,1.4764194141534972,1.0
357,2,1.0,39.0,54.0,40.0,3,1,21.5,1.4176982650305945,1.0
358,2,1.0,40.0,49.0,31.0,3,1,22.5,1.1616420513246342,1.0
359,2,1.0,41.0,55.0,50.0,4,2,18.5,1.0800869856984718,1.0
360,2,1.0,42.0,40.0,35.0,2,1,21.0,1.3486954363916084,1.0
361,2,1.0,43.0,35.0,36.0,2,1,22.0,1.0768173419801317,1.0
362,2,1.0,44.0,34.0,41.0,2,1,23.0,1.221432260279471,0.0
363,2,1.0,45.0,55.0,30.0,3,1,25.0,1.4480138936824003,0.0
364,2,1.0,46.0,41.0,38.0,2,1,24.5,1.6576666984101394,1.0
365,2,1.0,47.0,46.0,36.0,3,1,26.5,1.2815829185265102,1.0
366,2,1.0,48.0,37.0,34.0,2,1,26.0,1.1054665753263178,1.0
367,2,1.0,49.0,53.0,41.0,4,2,22.0,1.1754405007786772,1.0
368,2,1.0,50.0,53.0,39.0,3,1,28.0,1.5453413465029369,1.0
369,2,1.0,51.0,56.0,40.0,4,2,23.0,1.2370169134683238,0.0
370,2,1.0,52.0,47.0,32.0,3,1,29.0,1.2216397916909043,1.0
371,2,1.0,53.0,51.0,37.0,4,2,24.0,1.0214501462105543,0.0
372,2,1.0,54.0,58.0,44.0,4,2,25.0,1.0300657717552897,1.0
373,2,1.0,55.0,44.0,50.0,4,3,26.0,0.978355293092136,1.0
374,2,1.0,56.0,48.0,39.0,4,2,26.5,0.8781377605791931,0.0
375,2,1.0,57.0,57.0,48.0,4,3,27.5,0.9152155681322256,1.0
376,2,1.0,58.0,45.0,43.0,2,1,30.5,1.0000283307681457,1.0
377,2,1.0,59.0,53.0,52.0,4,3,28.5,1.0348407008696086,1.0
378,2,1.0,60.0,55.0,34.0,3,1,32.0,1.1570739709532063,1.0
379,2,1.0,61.0,54.0,38.0,4,2,29.0,1.0394555440752808,1.0
380,2,1.0,62.0,47.0,35.0,4,2,30.0,1.1247611938106274,1.0
381,2,1.0,63.0,57.0,47.0,4,3,31.0,0.9727195182267678,1.0
382,2,1.0,64.0,48.0,42.0,4,2,31.5,0.9106072102831604,1.0
383,2,1.0,65.0,50.0,44.0,3,1,33.5,1.0151832437495614,1.0
384,2,1.0,66.0,64.0,54.0,4,3,33.0,1.1967496758179552,1.0
385,2,1.0,67.0,46.0,39.0,4,2,33.0,1.3718519140502394,1.0
386,2,1.0,68.0,56.0,41.0,4,2,34.0,1.0314768488124173,1.0
387,2,1.0,69.0,58.0,37.0,3,1,35.0,1.3914346189021671,1.0
388,2,1.0,70.0,62.0,47.0,4,2,35.0,0.945141392719961,1.0
389,2,1.0,71.0,53.0,38.0,4,2,36.0,0.9962279118135484,1.0
390,2,1.0,72.0,49.0,34.0,4,2,37.0,1.0337661796847897,1.0
391,2,1.0,73.0,59.0,44.0,4,3,37.0,0.9267298067334196,1.0
392,2,1.0,74.0,51.0,49.0,4,3,38.0,1.2008811892910671,1.0
393,2,1.0,75.0,42.0,33.0,2,1,37.0,1.9246364018963504,1.0
394,2,1.0,76.0,60.0,53.0,4,3,39.0,1.3203271213851622,1.0
395,2,1.0,77.0,52.0,42.0,3,1,38.0,1.1405356290133568,1.0
396,2,1.0,78.0,50.0,31.0,3,1,39.0,1.5311145221812694,1.0
397,2,1.0,79.0,36.0,38.0,2,1,39.0,1.1800085811510144,1.0
398,2,1.0,80.0,43.0,33.0,2,1,40.0,1.3395169501627606,1.0
399,2,2.0,1.0,49.0,50.0,4,3,1.0,1.2721593540854883,0.0
400,2,2.0,2.0,54.0,33.0,3,1,1.5,1.2525247663825212,1.0
401,2,2.0,3.0,61.0,40.0,4,2,1.5,1.3221423385584783,0.0
402,2,2.0,4.0,48.0,43.0,4,2,2.5,0.9096309934511736,1.0
403,2,2.0,5.0,42.0,39.0,2,1,2.5,1.4537210074695397,1.0
404,2,2.0,6.0,56.0,53.0,4,3,3.5,1.3057261943895355,0.0
405,2,2.0,7.0,55.0,35.0,4,2,4.5,1.2641728081280237,1.0
406,2,2.0,8.0,44.0,38.0,4,2,5.5,1.3406163887693765,1.0
407,2,2.0,9.0,50.0,37.0,2,1,4.5,1.5993862121995337,1.0
408,2,2.0,10.0,38.0,34.0,2,1,5.5,1.345126100932248,1.0
409,2,2.0,11.0,53.0,43.0,4,3,5.5,1.7589055039170491,1.0
410,2,2.0,12.0,57.0,51.0,4,3,6.5,1.1298989615579558,1.0
411,2,2.0,13.0,60.0,45.0,4,2,8.5,1.2632518874943344,1.0
412,2,2.0,14.0,45.0,35.0,3,1,5.5,1.4197455897010514,1.0
413,2,2.0,15.0,46.0,37.0,2,1,7.5,2.130535550505556,0.0
414,2,2.0,16.0,50.0,38.0,3,1,7.0,1.93258335304472,1.0
415,2,2.0,17.0,44.0,28.0,3,1,8.0,1.3200301603210391,1.0
416,2,2.0,18.0,51.0,32.0,4,2,10.0,1.787806983500559,1.0
417,2,2.0,19.0,52.0,39.0,4,2,11.0,0.9449645814192992,1.0
418,2,2.0,20.0,43.0,35.0,2,1,10.5,1.7691479299592174,1.0
419,2,2.0,21.0,55.0,41.0,3,1,9.5,1.3365425608353692,1.0
420,2,2.0,22.0,55.0,40.0,4,3,11.0,1.12605041443112,0.0
421,2,2.0,23.0,56.0,57.0,4,3,12.0,0.9389352478110596,1.0
422,2,2.0,24.0,51.0,48.0,4,3,13.0,1.3978312284934873,1.0
423,2,2.0,25.0,51.0,42.0,3,1,12.0,1.314913555316707,1.0
424,2,2.0,26.0,49.0,32.0,3,1,13.0,1.0055763826521795,1.0
425,2,2.0,27.0,52.0,48.0,4,2,14.0,0.9305063322681236,1.0
426,2,2.0,28.0,54.0,38.0,4,2,15.0,1.1438278008126872,1.0
427,2,2.0,29.0,54.0,30.0,3,1,14.0,1.3924162970870384,1.0
428,2,2.0,30.0,42.0,38.0,3,1,15.0,1.0258465353008432,1.0
429,2,2.0,31.0,58.0,55.0,4,3,17.0,1.5340462446883976,1.0
430,2,2.0,32.0,49.0,44.0,4,2,16.5,0.834032215838306,1.0
431,2,2.0,33.0,37.0,32.0,2,1,15.5,2.004594021797857,1.0
432,2,2.0,34.0,60.0,41.0,4,2,18.0,1.0525627910519688,1.0
433,2,2.0,35.0,39.0,37.0,2,1,17.0,1.196430186672842,1.0
434,2,2.0,36.0,52.0,48.0,4,3,19.0,1.054414872356574,1.0
435,2,2.0,37.0,49.0,31.0,3,1,18.0,0.965491417654448,1.0
436,2,2.0,38.0,59.0,41.0,4,2,20.0,1.5599593402275789,1.0
437,2,2.0,39.0,53.0,34.0,4,2,21.0,0.8980013837699516,1.0
438,2,2.0,40.0,50.0,51.0,4,3,21.5,1.4335320924456028,1.0
439,2,2.0,41.0,52.0,46.0,3,1,19.5,1.2112420584253414,1.0
440,2,2.0,42.0,47.0,39.0,3,1,20.5,0.99934463765112,1.0
441,2,2.0,43.0,64.0,45.0,4,3,23.5,0.9442778162920148,1.0
442,2,2.0,44.0,33.0,36.0,2,1,20.5,1.6051493048553311,1.0
443,2,2.0,45.0,41.0,40.0,2,1,21.5,1.3407785226836495,1.0
444,2,2.0,46.0,57.0,36.0,4,2,24.0,1.073998942545586,1.0
445,2,2.0,47.0,58.0,34.0,3,1,23.0,0.8990782942964871,1.0
446,2,2.0,48.0,50.0,46.0,4,2,25.0,0.9638246810145574,1.0
447,2,2.0,49.0,57.0,52.0,4,3,26.0,1.0816871621000246,0.0
448,2,2.0,50.0,42.0,29.0,2,1,24.0,1.1817623581027874,1.0
449,2,2.0,51.0,48.0,36.0,3,1,25.0,1.6346511919236946,1.0
450,2,2.0,52.0,48.0,53.0,4,3,27.5,0.9367322745820276,1.0
451,2,2.0,53.0,46.0,36.0,3,1,26.5,1.1750609367518337,1.0
452,2,2.0,54.0,47.0,40.0,3,1,27.5,0.9445310865330612,1.0
453,2,2.0,55.0,53.0,56.0,4,3,29.5,0.9961309727996196,1.0
454,2,2.0,56.0,35.0,33.0,2,1,26.5,1.303974124110027,1.0
455,2,2.0,57.0,56.0,40.0,4,2,28.5,0.965721477145962,1.0
456,2,2.0,58.0,45.0,39.0,2,1,28.0,1.106274514220786,1.0
457,2,2.0,59.0,54.0,46.0,4,3,31.0,1.0773675732853008,1.0
458,2,2.0,60.0,54.0,37.0,4,2,30.5,0.8714592086435005,1.0
459,2,2.0,61.0,55.0,43.0,4,2,31.5,0.9080710945263492,1.0
460,2,2.0,62.0,34.0,33.0,2,1,30.0,1.217633547998048,1.0
461,2,2.0,63.0,60.0,36.0,3,1,31.0,1.0813096460806264,1.0
462,2,2.0,64.0,44.0,38.0,2,1,31.5,1.2146489186343388,0.0
463,2,2.0,65.0,40.0,26.0,2,1,32.5,0.9722283377996064,1.0
464,2,2.0,66.0,30.0,44.0,2,1,33.5,1.00669254665263,1.0
465,2,2.0,67.0,47.0,50.0,4,3,33.5,1.0434692971266486,1.0
466,2,2.0,68.0,51.0,47.0,4,3,34.5,0.9768363543144004,1.0
467,2,2.0,69.0,62.0,40.0,4,2,35.5,0.9571956225890972,1.0
468,2,2.0,70.0,58.0,53.0,4,3,36.0,0.8548792238871101,1.0
469,2,2.0,71.0,54.0,44.0,4,3,37.0,0.8595241045341027,1.0
470,2,2.0,72.0,50.0,30.0,3,1,35.5,1.2829397233890631,1.0
471,2,2.0,73.0,52.0,35.0,3,1,36.5,0.964725462908973,1.0
472,2,2.0,74.0,59.0,56.0,4,3,39.0,1.2167286700887416,1.0
473,2,2.0,75.0,37.0,41.0,2,1,36.0,1.227743194897812,1.0
474,2,2.0,76.0,46.0,47.0,4,2,38.5,0.9874979391925078,1.0
475,2,2.0,77.0,36.0,34.0,2,1,37.5,1.39107963096194,1.0
476,2,2.0,78.0,39.0,42.0,2,1,38.5,1.0392824874552389,1.0
477,2,2.0,79.0,49.0,31.0,3,1,39.5,1.7639115165256951,1.0
478,2,2.0,80.0,42.0,43.0,2,1,40.0,1.3360227083048812,1.0
479,3,0.0,1.0,50.0,41.0,3,1,1.0,2.456583973536908,0.0
480,3,0.0,2.0,48.0,34.0,3,1,2.0,2.1701681453896526,1.0
481,3,0.0,3.0,52.0,46.0,4,2,1.0,1.4949569353784682,0.0
482,3,0.0,4.0,55.0,48.0,4,3,2.5,1.7793506907100891,0.0
483,3,0.0,5.0,48.0,52.0,4,3,3.5,1.853334867068952,0.0
484,3,0.0,6.0,54.0,52.0,4,3,4.5,1.6441496593297416,0.0
485,3,0.0,7.0,53.0,39.0,4,2,3.5,1.3121733630478047,0.0
486,3,0.0,8.0,47.0,34.0,3,1,4.5,1.845676658814228,0.0
487,3,0.0,9.0,57.0,40.0,4,2,4.5,1.2442042047787254,0.0
488,3,0.0,10.0,41.0,40.0,2,1,4.0,1.3757921975438876,0.0
489,3,0.0,11.0,41.0,37.0,2,1,5.0,1.4536914946302204,1.0
490,3,0.0,12.0,57.0,39.0,4,2,6.5,1.2446209756944882,0.0
491,3,0.0,13.0,51.0,45.0,4,3,7.5,1.9823304150268088,0.0
492,3,0.0,14.0,59.0,33.0,4,2,8.0,1.207052542148631,1.0
493,3,0.0,15.0,54.0,42.0,4,2,9.0,1.224804047696125,1.0
494,3,0.0,16.0,43.0,28.0,2,1,7.5,1.902152701996784,1.0
495,3,0.0,17.0,64.0,50.0,4,3,9.5,1.3409848286510169,0.0
496,3,0.0,18.0,50.0,51.0,4,3,10.5,1.2069228345744705,1.0
497,3,0.0,19.0,53.0,34.0,4,2,11.5,1.189712004811554,1.0
498,3,0.0,20.0,38.0,26.0,2,1,9.0,1.6513593524450698,1.0
499,3,0.0,21.0,54.0,44.0,4,3,12.0,1.1396855000921278,1.0
500,3,0.0,22.0,51.0,45.0,4,2,13.5,1.0657781242716735,1.0
501,3,0.0,23.0,53.0,38.0,3,1,9.5,1.277372138199098,1.0
502,3,0.0,24.0,59.0,46.0,4,3,14.0,1.2013904651967096,0.0
503,3,0.0,25.0,48.0,32.0,2,1,11.0,1.6327005765506328,0.0
504,3,0.0,26.0,38.0,38.0,2,1,12.0,1.3596176630317132,0.0
505,3,0.0,27.0,60.0,42.0,4,2,16.0,1.1653143514267867,1.0
506,3,0.0,28.0,60.0,42.0,3,1,12.0,1.2087923303233763,1.0
507,3,0.0,29.0,49.0,35.0,3,1,13.0,1.1195245056860583,1.0
508,3,0.0,30.0,54.0,39.0,3,1,14.0,1.195818842209519,1.0
509,3,0.0,31.0,49.0,44.0,4,3,17.0,1.1575267769339916,1.0
510,3,0.0,32.0,61.0,39.0,4,2,17.5,1.1458599219640746,1.0
511,3,0.0,33.0,54.0,49.0,4,3,18.5,1.0365997227672779,1.0
512,3,0.0,34.0,53.0,51.0,4,3,19.5,1.2668583152963038,1.0
513,3,0.0,35.0,56.0,48.0,4,3,20.5,1.0184666038830985,1.0
514,3,0.0,36.0,57.0,29.0,3,1,17.0,1.3611779086159004,1.0
515,3,0.0,37.0,35.0,38.0,2,1,16.0,1.506027818178154,0.0
516,3,0.0,38.0,46.0,33.0,2,1,17.0,1.7204224917031752,1.0
517,3,0.0,39.0,45.0,44.0,2,1,18.0,1.078939347031337,1.0
518,3,0.0,40.0,58.0,50.0,4,3,22.0,1.1685939050412344,1.0
519,3,0.0,41.0,49.0,52.0,4,3,23.0,1.0007161223447838,1.0
520,3,0.0,42.0,50.0,55.0,4,3,24.0,1.0895009569348986,1.0
521,3,0.0,43.0,49.0,33.0,3,1,21.0,1.0671854514530423,1.0
522,3,0.0,44.0,38.0,36.0,2,1,19.5,1.2275855924917778,1.0
523,3,0.0,45.0,56.0,42.0,3,1,22.5,1.1660707513856323,1.0
524,3,0.0,46.0,40.0,37.0,2,1,21.0,1.1300437899599274,0.0
525,3,0.0,47.0,47.0,30.0,3,1,24.0,1.2797485174933172,1.0
526,3,0.0,48.0,44.0,34.0,2,1,22.5,1.3459072310952251,1.0
527,3,0.0,49.0,37.0,36.0,2,1,23.5,1.7628358444835612,1.0
528,3,0.0,50.0,56.0,47.0,4,3,26.5,1.409764317923873,1.0
529,3,0.0,51.0,43.0,31.0,2,1,24.5,1.3587295074839858,0.0
530,3,0.0,52.0,44.0,55.0,4,3,27.5,1.0418726769967182,1.0
531,3,0.0,53.0,37.0,43.0,2,1,25.5,1.8110338137403232,1.0
532,3,0.0,54.0,60.0,41.0,4,2,27.0,1.159093849232704,1.0
533,3,0.0,55.0,43.0,39.0,3,1,28.0,1.3794147935577712,1.0
534,3,0.0,56.0,51.0,36.0,3,1,29.0,1.259795737877539,1.0
535,3,0.0,57.0,47.0,43.0,4,2,28.0,1.9824594399296984,1.0
536,3,0.0,58.0,56.0,39.0,3,1,30.0,1.1690103346218166,1.0
537,3,0.0,59.0,46.0,35.0,3,1,31.0,1.3376830882152717,1.0
538,3,0.0,60.0,55.0,50.0,4,3,31.5,1.031970186372746,0.0
539,3,0.0,61.0,37.0,32.0,2,1,29.5,1.1573424556445389,1.0
540,3,0.0,62.0,52.0,30.0,4,2,30.0,1.0459533455505152,1.0
541,3,0.0,63.0,57.0,47.0,4,2,31.0,1.074289330494139,1.0
542,3,0.0,64.0,54.0,40.0,3,1,33.0,1.1338722114151096,1.0
543,3,0.0,65.0,42.0,36.0,3,1,34.0,0.9870579147736862,1.0
544,3,0.0,66.0,35.0,31.0,2,1,32.5,1.554159226970114,1.0
545,3,0.0,67.0,40.0,46.0,2,1,33.5,1.0537590108360746,1.0
546,3,0.0,68.0,51.0,53.0,4,3,34.5,0.931476171182112,1.0
547,3,0.0,69.0,58.0,40.0,4,2,33.5,1.0416456887423922,1.0
548,3,0.0,70.0,46.0,36.0,4,2,34.5,0.9223478299754788,1.0
549,3,0.0,71.0,40.0,35.0,3,1,36.5,1.10891545011782,1.0
550,3,0.0,72.0,56.0,58.0,4,3,37.0,1.3315301704933518,1.0
551,3,0.0,73.0,52.0,44.0,4,2,36.0,0.9808828102304687,1.0
552,3,0.0,74.0,62.0,32.0,4,2,37.0,0.9595950666071076,1.0
553,3,0.0,75.0,50.0,33.0,2,1,37.0,1.833321671028898,1.0
554,3,0.0,76.0,55.0,36.0,4,2,38.5,1.9343782074884075,0.0
555,3,0.0,77.0,45.0,41.0,3,1,38.5,1.4019944928895711,1.0
556,3,0.0,78.0,34.0,37.0,2,1,39.0,1.2414980951762118,1.0
557,3,0.0,79.0,48.0,42.0,4,2,40.0,0.9860001153720076,1.0
558,3,0.0,80.0,53.0,30.0,3,1,40.0,1.0927665157851152,1.0
559,3,1.0,1.0,49.0,52.0,4,3,1.0,2.952584713552824,1.0
560,3,1.0,2.0,41.0,39.0,2,1,1.0,1.3665041112180916,1.0
561,3,1.0,3.0,48.0,35.0,3,1,2.0,1.2716789996948137,0.0
562,3,1.0,4.0,32.0,26.0,2,1,2.5,1.224178037981801,1.0
563,3,1.0,5.0,58.0,38.0,4,2,2.5,1.3262677976717896,1.0
564,3,1.0,6.0,47.0,55.0,4,3,3.0,1.2692579054200903,1.0
565,3,1.0,7.0,54.0,42.0,4,3,4.0,1.0811665626160902,0.0
566,3,1.0,8.0,55.0,45.0,4,2,4.5,0.960754584053575,1.0
567,3,1.0,9.0,54.0,43.0,3,1,4.5,1.5590375971050892,1.0
568,3,1.0,10.0,52.0,49.0,4,3,6.0,1.3045527017238785,1.0
569,3,1.0,11.0,48.0,44.0,4,2,6.0,1.1989369440279916,1.0
570,3,1.0,12.0,34.0,37.0,2,1,5.5,1.4956491642224137,1.0
571,3,1.0,13.0,60.0,33.0,3,1,6.5,1.6684261385344143,1.0
572,3,1.0,14.0,54.0,45.0,4,2,7.5,1.4030468309192656,1.0
573,3,1.0,15.0,60.0,37.0,4,2,8.5,1.5453377465773883,0.0
574,3,1.0,16.0,53.0,50.0,4,3,9.0,1.1931475488518115,1.0
575,3,1.0,17.0,48.0,45.0,4,3,10.0,1.3370055368068279,1.0
576,3,1.0,18.0,61.0,33.0,4,2,10.5,1.5361233887670096,1.0
577,3,1.0,19.0,42.0,36.0,2,1,8.5,1.3446265394668444,1.0
578,3,1.0,20.0,47.0,34.0,2,1,9.5,1.4034905673579487,1.0
579,3,1.0,21.0,64.0,38.0,4,2,12.5,1.2005610193918983,1.0
580,3,1.0,22.0,51.0,30.0,3,1,9.5,1.3631214742154043,1.0
581,3,1.0,23.0,49.0,40.0,4,2,13.5,1.3002641597149704,0.0
582,3,1.0,24.0,54.0,49.0,4,3,13.0,1.121205584116069,1.0
583,3,1.0,25.0,53.0,38.0,3,1,11.0,1.5136505275168015,1.0
584,3,1.0,26.0,37.0,44.0,2,1,12.5,1.8388970487094407,1.0
585,3,1.0,27.0,51.0,31.0,3,1,12.5,1.0400635976711785,1.0
586,3,1.0,28.0,47.0,33.0,3,1,13.5,1.1421458479744615,1.0
587,3,1.0,29.0,56.0,43.0,4,3,15.5,1.4195425623456686,1.0
588,3,1.0,30.0,35.0,41.0,2,1,14.5,1.304297382604091,1.0
589,3,1.0,31.0,40.0,38.0,2,1,15.5,1.266295452691338,0.0
590,3,1.0,32.0,39.0,34.0,2,1,16.5,1.3131567512627953,1.0
591,3,1.0,33.0,58.0,40.0,3,1,16.5,1.3790785778728605,1.0
592,3,1.0,34.0,40.0,32.0,3,1,17.5,1.4187844557072822,1.0
593,3,1.0,35.0,58.0,42.0,4,2,17.5,1.2657028938783697,1.0
594,3,1.0,36.0,30.0,39.0,2,1,19.0,1.442393964911389,1.0
595,3,1.0,37.0,42.0,35.0,2,1,20.0,1.5625792965547591,1.0
596,3,1.0,38.0,51.0,34.0,4,2,19.5,1.1586661555729734,1.0
597,3,1.0,39.0,46.0,56.0,4,3,18.5,1.0540488048645784,1.0
598,3,1.0,40.0,59.0,49.0,4,3,19.5,1.1520353678424726,0.0
599,3,1.0,41.0,55.0,43.0,4,2,21.5,1.437217608690844,1.0
600,3,1.0,42.0,53.0,55.0,4,3,21.0,1.4115580371417311,1.0
601,3,1.0,43.0,62.0,44.0,4,3,22.0,1.5196071771979405,1.0
602,3,1.0,44.0,51.0,41.0,3,1,21.5,1.3928808291184396,1.0
603,3,1.0,45.0,54.0,36.0,4,2,23.5,1.500660313953631,1.0
604,3,1.0,46.0,50.0,36.0,2,1,23.0,1.331002465468373,1.0
605,3,1.0,47.0,46.0,46.0,2,1,24.0,1.3561643695347811,1.0
606,3,1.0,48.0,53.0,52.0,4,3,24.0,1.1860382084378216,1.0
607,3,1.0,49.0,40.0,31.0,2,1,25.0,1.4233249034787152,1.0
608,3,1.0,50.0,48.0,32.0,3,1,24.5,1.4908209704371984,1.0
609,3,1.0,51.0,43.0,39.0,2,1,26.5,1.1310698451397911,1.0
610,3,1.0,52.0,50.0,42.0,3,1,26.0,1.1603076390592832,1.0
611,3,1.0,53.0,40.0,28.0,2,1,28.0,1.5539049318576872,1.0
612,3,1.0,54.0,47.0,40.0,3,1,27.5,1.2415762610562524,1.0
613,3,1.0,55.0,55.0,46.0,4,2,27.5,1.37199552031052,1.0
614,3,1.0,56.0,52.0,53.0,4,3,27.0,2.165013293320044,0.0
615,3,1.0,57.0,60.0,45.0,4,3,28.0,1.3463093245754862,1.0
616,3,1.0,58.0,46.0,35.0,3,1,29.5,1.4360673073088035,1.0
617,3,1.0,59.0,57.0,36.0,4,2,29.5,1.2872080683573586,1.0
618,3,1.0,60.0,50.0,30.0,3,1,30.5,1.8832041320738424,0.0
619,3,1.0,61.0,52.0,42.0,3,1,31.5,2.026565135218334,0.0
620,3,1.0,62.0,41.0,36.0,2,1,32.0,1.5855593826872791,1.0
621,3,1.0,63.0,48.0,37.0,3,1,33.0,1.4653470855218984,1.0
622,3,1.0,64.0,50.0,38.0,4,2,31.0,1.287203972328825,0.0
623,3,1.0,65.0,51.0,35.0,4,2,32.0,1.218525859764668,1.0
624,3,1.0,66.0,57.0,43.0,4,2,33.0,1.3721713082068163,1.0
625,3,1.0,67.0,48.0,29.0,2,1,35.0,1.413724153631847,1.0
626,3,1.0,68.0,50.0,56.0,4,3,33.0,1.156866974984041,1.0
627,3,1.0,69.0,57.0,39.0,4,2,35.0,1.303875832986705,0.0
628,3,1.0,70.0,47.0,36.0,3,1,35.0,1.2868264550206732,1.0
629,3,1.0,71.0,51.0,39.0,4,2,36.0,1.2793454000056954,1.0
630,3,1.0,72.0,59.0,44.0,4,2,37.0,1.4180908615207954,0.0
631,3,1.0,73.0,56.0,44.0,4,3,36.0,1.577170374654088,1.0
632,3,1.0,74.0,52.0,53.0,4,3,37.0,1.3256445186425478,1.0
633,3,1.0,75.0,37.0,34.0,2,1,38.0,1.299661360830214,1.0
634,3,1.0,76.0,41.0,37.0,2,1,39.0,1.4549319086436299,1.0
635,3,1.0,77.0,57.0,33.0,3,1,38.0,1.1374808126656717,1.0
636,3,1.0,78.0,46.0,38.0,3,1,39.0,1.5236817017084832,1.0
637,3,1.0,79.0,56.0,54.0,4,3,39.0,1.0591196883460725,1.0
638,3,1.0,80.0,44.0,50.0,4,3,40.0,1.6172551351401123,1.0
639,3,2.0,1.0,48.0,31.0,2,1,1.0,1.6746637075139006,0.0
640,3,2.0,2.0,38.0,37.0,2,1,2.0,1.8278705395523505,1.0
641,3,2.0,3.0,50.0,38.0,3,1,2.0,1.5646484737007995,1.0
642,3,2.0,4.0,44.0,28.0,3,1,3.0,1.4769791242479189,1.0
643,3,2.0,5.0,44.0,41.0,4,2,2.0,2.094174866972935,0.0
644,3,2.0,6.0,62.0,45.0,4,3,2.5,1.779505315791539,0.0
645,3,2.0,7.0,57.0,38.0,3,1,4.5,1.6263097478313284,0.0
646,3,2.0,8.0,38.0,34.0,2,1,5.0,1.6376987555240703,1.0
647,3,2.0,9.0,37.0,32.0,2,1,6.0,1.6359077669922044,1.0
648,3,2.0,10.0,56.0,42.0,4,2,4.5,1.2303568972174617,0.0
649,3,2.0,11.0,39.0,36.0,2,1,7.5,2.1709440014856227,1.0
650,3,2.0,12.0,44.0,36.0,2,1,8.5,1.5963339860818448,1.0
651,3,2.0,13.0,53.0,39.0,4,2,6.5,1.7568344798228281,1.0
652,3,2.0,14.0,61.0,60.0,4,3,5.0,1.4442371778086454,1.0
653,3,2.0,15.0,50.0,42.0,4,3,6.0,1.0417231719502524,1.0
654,3,2.0,16.0,59.0,58.0,4,3,7.0,1.0039513023148174,1.0
655,3,2.0,17.0,45.0,42.0,2,1,10.0,1.6217245850812103,1.0
656,3,2.0,18.0,48.0,33.0,3,1,9.5,1.3958094896106559,1.0
657,3,2.0,19.0,51.0,49.0,4,3,8.5,1.1440941922746788,0.0
658,3,2.0,20.0,53.0,36.0,3,1,11.0,1.5582378475091898,1.0
659,3,2.0,21.0,56.0,46.0,4,3,10.0,1.0641468808571517,1.0
660,3,2.0,22.0,48.0,42.0,4,2,10.5,1.137704387562735,1.0
661,3,2.0,23.0,60.0,40.0,4,2,11.5,1.1363270979263689,1.0
662,3,2.0,24.0,47.0,40.0,2,1,13.0,1.2350738155564611,1.0
663,3,2.0,25.0,49.0,34.0,4,2,13.0,1.0498271646574722,1.0
664,3,2.0,26.0,57.0,41.0,4,2,14.0,1.5073276246066598,1.0
665,3,2.0,27.0,50.0,32.0,3,1,13.0,1.5065773686901591,1.0
666,3,2.0,28.0,52.0,30.0,4,2,15.0,1.3119637829140631,1.0
667,3,2.0,29.0,33.0,39.0,2,1,16.0,1.5123111261445956,1.0
668,3,2.0,30.0,49.0,50.0,4,2,16.5,1.024407552120465,1.0
669,3,2.0,31.0,55.0,47.0,4,3,14.5,1.0038311521411742,1.0
670,3,2.0,32.0,53.0,29.0,3,1,15.0,1.0934969742293106,1.0
671,3,2.0,33.0,50.0,37.0,3,1,16.0,1.2507110876422305,1.0
672,3,2.0,34.0,51.0,33.0,3,1,17.0,1.6829568002094677,1.0
673,3,2.0,35.0,57.0,56.0,4,3,17.0,1.324506164010927,0.0
674,3,2.0,36.0,46.0,40.0,4,3,18.0,0.9964985781662108,1.0
675,3,2.0,37.0,48.0,42.0,3,1,19.0,1.3494974002160234,1.0
676,3,2.0,38.0,37.0,30.0,2,1,19.5,1.4003192171676346,1.0
677,3,2.0,39.0,55.0,31.0,3,1,20.5,1.0829722285843673,1.0
678,3,2.0,40.0,46.0,43.0,2,1,21.0,3.1862249190780867,1.0
679,3,2.0,41.0,64.0,52.0,4,3,20.0,1.1923699860772103,1.0
680,3,2.0,42.0,54.0,50.0,4,3,21.0,1.575293710855476,1.0
681,3,2.0,43.0,35.0,26.0,2,1,22.0,1.0446398856938686,1.0
682,3,2.0,44.0,55.0,42.0,4,2,21.5,1.9669317366106045,0.0
683,3,2.0,45.0,51.0,32.0,4,2,22.5,1.0061491630276578,0.0
684,3,2.0,46.0,53.0,40.0,4,2,23.5,1.327400008260156,1.0
685,3,2.0,47.0,58.0,43.0,4,3,23.5,1.0931235529496917,1.0
686,3,2.0,48.0,47.0,52.0,4,3,24.5,1.0699393480554136,1.0
687,3,2.0,49.0,54.0,44.0,3,1,24.5,1.3448579650867032,1.0
688,3,2.0,50.0,58.0,48.0,4,3,26.0,1.1115512445612694,1.0
689,3,2.0,51.0,54.0,43.0,4,2,26.0,1.2815688608980054,1.0
690,3,2.0,52.0,39.0,34.0,2,1,25.5,1.3718439672493332,1.0
691,3,2.0,53.0,56.0,39.0,3,1,26.5,1.0886807271954242,1.0
692,3,2.0,54.0,60.0,45.0,4,3,28.0,1.3253837381525957,1.0
693,3,2.0,55.0,35.0,30.0,2,1,27.0,1.3541934970771763,1.0
694,3,2.0,56.0,57.0,44.0,4,3,29.0,1.0569982868364605,1.0
695,3,2.0,57.0,40.0,39.0,2,1,28.0,1.2310214778681257,1.0
696,3,2.0,58.0,50.0,53.0,4,3,30.0,0.9509104618373384,1.0
697,3,2.0,59.0,52.0,49.0,4,3,31.0,1.5158893485167937,1.0
698,3,2.0,60.0,59.0,40.0,4,2,30.5,1.3207115347922809,1.0
699,3,2.0,61.0,51.0,43.0,4,2,31.5,1.7390645421473891,1.0
700,3,2.0,62.0,36.0,41.0,2,1,30.0,1.5951062014901254,1.0
701,3,2.0,63.0,56.0,46.0,4,2,33.0,1.334298403197863,1.0
702,3,2.0,64.0,55.0,34.0,3,1,31.0,1.4684645046691005,1.0
703,3,2.0,65.0,52.0,38.0,3,1,32.0,1.0735790108565195,1.0
704,3,2.0,66.0,48.0,38.0,4,2,34.0,1.3259445527419302,1.0
705,3,2.0,67.0,47.0,35.0,3,1,33.0,1.4611380747373914,1.0
706,3,2.0,68.0,54.0,51.0,4,3,35.5,1.3286025340084957,0.0
707,3,2.0,69.0,45.0,33.0,2,1,33.5,1.1921460698440571,1.0
708,3,2.0,70.0,47.0,40.0,3,1,35.0,1.0978251111810096,1.0
709,3,2.0,71.0,43.0,37.0,2,1,35.0,1.4451707310081474,1.0
710,3,2.0,72.0,37.0,36.0,2,1,36.0,1.1680190956858496,1.0
711,3,2.0,73.0,53.0,44.0,4,2,37.0,1.1932304934316562,0.0
712,3,2.0,74.0,55.0,51.0,4,3,37.5,1.2024540673055526,0.0
713,3,2.0,75.0,36.0,46.0,2,1,37.5,1.2782749711823271,1.0
714,3,2.0,76.0,49.0,35.0,3,1,38.0,1.666734478696526,1.0
715,3,2.0,77.0,46.0,35.0,3,1,39.0,1.0565412383048172,1.0
716,3,2.0,78.0,54.0,41.0,4,2,39.0,1.1826903876790311,0.0
717,3,2.0,79.0,54.0,41.0,3,1,40.0,1.570782617955956,1.0
718,3,2.0,80.0,52.0,34.0,4,2,40.0,1.1638892747878344,0.0
719,4,0.0,1.0,41.0,34.0,2,1,1.0,2.8578869202538044,1.0
720,4,0.0,2.0,30.0,39.0,2,1,2.0,1.299026817723643,0.0
721,4,0.0,3.0,43.0,36.0,2,1,3.0,1.5421438682278676,0.0
722,4,0.0,4.0,51.0,52.0,4,3,1.0,1.0501271987577638,1.0
723,4,0.0,5.0,55.0,39.0,4,2,3.0,2.2108427340026537,1.0
724,4,0.0,6.0,44.0,35.0,3,1,3.0,1.1490374161967338,1.0
725,4,0.0,7.0,51.0,50.0,4,3,3.0,1.1873806818312005,1.0
726,4,0.0,8.0,57.0,37.0,3,1,4.5,1.7044377398524375,1.0
727,4,0.0,9.0,41.0,28.0,2,1,5.5,1.58897308124142,1.0
728,4,0.0,10.0,60.0,53.0,4,3,4.5,1.790060781651846,1.0
729,4,0.0,11.0,49.0,35.0,3,1,6.5,1.2233516641990718,1.0
730,4,0.0,12.0,36.0,38.0,2,1,7.0,1.3880471739612403,1.0
731,4,0.0,13.0,52.0,46.0,4,3,6.0,1.4420461438112395,0.0
732,4,0.0,14.0,61.0,44.0,4,2,6.5,1.1108317088601325,1.0
733,4,0.0,15.0,40.0,39.0,2,1,8.5,1.265014761063867,0.0
734,4,0.0,16.0,50.0,50.0,4,3,7.5,1.3803346933291325,1.0
735,4,0.0,17.0,60.0,37.0,4,2,8.5,1.009508930535958,1.0
736,4,0.0,18.0,53.0,41.0,4,2,9.5,1.9748568693994453,1.0
737,4,0.0,19.0,48.0,32.0,3,1,9.5,1.5773372878211376,1.0
738,4,0.0,20.0,62.0,33.0,4,2,10.5,1.1448352321276616,1.0
739,4,0.0,21.0,54.0,40.0,4,2,11.5,1.2478861932086147,1.0
740,4,0.0,22.0,43.0,33.0,2,1,12.0,1.1120332106002024,0.0
741,4,0.0,23.0,54.0,38.0,4,2,13.0,0.8644381767626328,1.0
742,4,0.0,24.0,56.0,36.0,3,1,11.0,1.0034024344749923,1.0
743,4,0.0,25.0,48.0,35.0,4,2,14.0,1.3077820789876569,1.0
744,4,0.0,26.0,64.0,52.0,4,3,12.5,1.747944390950579,1.0
745,4,0.0,27.0,47.0,36.0,3,1,12.5,1.2756384940676069,1.0
746,4,0.0,28.0,54.0,43.0,4,3,14.0,1.6607228739649145,1.0
747,4,0.0,29.0,42.0,37.0,2,1,15.0,2.442661572118596,1.0
748,4,0.0,30.0,57.0,54.0,4,3,15.0,1.4976818184459262,1.0
749,4,0.0,31.0,49.0,30.0,3,1,15.0,2.8399695255466213,1.0
750,4,0.0,32.0,46.0,51.0,4,3,16.5,1.0800828216997616,1.0
751,4,0.0,33.0,43.0,42.0,2,1,16.5,2.647279707898633,0.0
752,4,0.0,34.0,47.0,43.0,3,1,17.0,1.3296395119323279,1.0
753,4,0.0,35.0,35.0,35.0,2,1,18.0,2.029815333960869,1.0
754,4,0.0,36.0,48.0,26.0,2,1,19.0,2.2869121302865096,1.0
755,4,0.0,37.0,59.0,55.0,4,3,18.0,2.231410600588788,1.0
756,4,0.0,38.0,50.0,38.0,3,1,19.5,3.0660528995267677,1.0
757,4,0.0,39.0,38.0,42.0,2,1,20.5,1.5163931600418437,0.0
758,4,0.0,40.0,44.0,44.0,4,3,19.5,2.9943037894754525,1.0
759,4,0.0,41.0,39.0,33.0,2,1,21.5,2.035299916336953,1.0
760,4,0.0,42.0,50.0,36.0,2,1,22.5,1.9635596810148848,0.0
761,4,0.0,43.0,57.0,45.0,4,2,21.5,1.557025081690881,1.0
762,4,0.0,44.0,45.0,37.0,3,1,22.5,1.3806091272490448,1.0
763,4,0.0,45.0,53.0,32.0,4,2,22.5,1.9304514813466085,1.0
764,4,0.0,46.0,53.0,31.0,3,1,23.5,1.8326936133016718,1.0
765,4,0.0,47.0,40.0,40.0,2,1,25.5,2.452681482231128,1.0
766,4,0.0,48.0,40.0,34.0,3,1,25.0,1.5144724639358174,1.0
767,4,0.0,49.0,55.0,51.0,4,3,23.0,1.8734702612964609,1.0
768,4,0.0,50.0,42.0,46.0,2,1,27.0,1.83115316518888,0.0
769,4,0.0,51.0,45.0,41.0,3,1,27.0,1.4160732260697841,1.0
770,4,0.0,52.0,52.0,34.0,3,1,28.0,1.912313242426535,1.0
771,4,0.0,53.0,59.0,37.0,4,2,25.0,1.2803417589784658,1.0
772,4,0.0,54.0,49.0,48.0,4,3,25.5,1.1034789960776834,1.0
773,4,0.0,55.0,52.0,53.0,4,3,26.5,1.2071269533371378,1.0
774,4,0.0,56.0,56.0,45.0,4,2,27.0,1.1989161225483258,1.0
775,4,0.0,57.0,46.0,40.0,2,1,30.0,1.7706616485756967,1.0
776,4,0.0,58.0,57.0,47.0,4,3,28.0,1.3097655808651325,1.0
777,4,0.0,59.0,60.0,29.0,3,1,31.0,1.9711496221243576,1.0
778,4,0.0,60.0,38.0,41.0,2,1,31.5,3.0780133032185404,1.0
779,4,0.0,61.0,51.0,56.0,4,3,29.5,1.113836828553758,0.0
780,4,0.0,62.0,47.0,42.0,4,2,30.0,1.3609147387742269,1.0
781,4,0.0,63.0,58.0,37.0,4,2,31.0,1.038874725352798,1.0
782,4,0.0,64.0,42.0,31.0,3,1,33.0,2.5093548174590983,1.0
783,4,0.0,65.0,53.0,58.0,4,3,32.0,1.4870683255139738,1.0
784,4,0.0,66.0,56.0,34.0,4,2,32.5,1.07682374822798,1.0
785,4,0.0,67.0,56.0,44.0,4,2,33.5,1.0310827134962892,1.0
786,4,0.0,68.0,52.0,39.0,4,2,34.5,1.0740497128172135,1.0
787,4,0.0,69.0,50.0,48.0,4,3,34.5,1.55337790950216,1.0
788,4,0.0,70.0,55.0,49.0,4,3,35.5,2.029280460885275,1.0
789,4,0.0,71.0,49.0,54.0,4,3,36.5,1.8521040104551505,1.0
790,4,0.0,72.0,51.0,30.0,3,1,36.0,2.463747586329191,1.0
791,4,0.0,73.0,54.0,46.0,4,2,37.0,1.2181090888479955,1.0
792,4,0.0,74.0,48.0,47.0,4,2,38.0,1.240690494858427,1.0
793,4,0.0,75.0,34.0,39.0,2,1,37.0,1.9888977143145887,0.0
794,4,0.0,76.0,50.0,38.0,3,1,37.5,2.231615402024545,1.0
795,4,0.0,77.0,55.0,33.0,3,1,38.5,1.1187841485043464,1.0
796,4,0.0,78.0,46.0,44.0,3,1,39.5,1.9141622580300464,1.0
797,4,0.0,79.0,58.0,40.0,4,2,39.5,1.539376318194627,1.0
798,4,0.0,80.0,36.0,32.0,2,1,40.0,2.267901778597661,0.0
799,4,1.0,1.0,51.0,44.0,4,2,1.0,2.9375403416142944,1.0
800,4,1.0,2.0,50.0,46.0,3,1,1.0,2.16737362983622,1.0
801,4,1.0,3.0,37.0,32.0,2,1,2.0,3.330618804116966,1.0
802,4,1.0,4.0,60.0,38.0,4,2,2.5,1.3307413436414208,1.0
803,4,1.0,5.0,50.0,51.0,4,3,2.5,1.9835861891460809,1.0
804,4,1.0,6.0,56.0,56.0,4,3,3.5,2.4962226082352568,0.0
805,4,1.0,7.0,40.0,38.0,3,1,3.5,1.534530033619376,0.0
806,4,1.0,8.0,46.0,51.0,4,3,5.0,2.6497318637248104,0.0
807,4,1.0,9.0,57.0,49.0,4,3,6.0,1.9727102090437256,1.0
808,4,1.0,10.0,42.0,33.0,3,1,5.5,1.5155715649580088,1.0
809,4,1.0,11.0,50.0,52.0,4,3,7.5,2.4478894700314413,1.0
810,4,1.0,12.0,56.0,55.0,4,3,8.5,1.4699663818446425,0.0
811,4,1.0,13.0,49.0,38.0,3,1,7.5,1.3768588716739032,1.0
812,4,1.0,14.0,54.0,40.0,4,2,6.5,1.4129571722660332,1.0
813,4,1.0,15.0,64.0,39.0,4,2,7.5,2.7695840517026227,1.0
814,4,1.0,16.0,41.0,36.0,2,1,6.0,1.6260377032613178,1.0
815,4,1.0,17.0,47.0,34.0,4,2,9.0,1.4960082494017115,1.0
816,4,1.0,18.0,44.0,37.0,2,1,7.5,1.5001186141635117,1.0
817,4,1.0,19.0,61.0,50.0,4,2,10.5,1.5178318901089367,1.0
818,4,1.0,20.0,53.0,29.0,3,1,9.5,1.3767923112081917,1.0
819,4,1.0,21.0,39.0,34.0,2,1,9.5,1.6852597923261785,1.0
820,4,1.0,22.0,62.0,42.0,4,2,12.0,1.528635507038416,1.0
821,4,1.0,23.0,40.0,40.0,2,1,11.0,1.4300946148487128,1.0
822,4,1.0,24.0,53.0,38.0,4,2,13.5,1.3558056256897544,1.0
823,4,1.0,25.0,42.0,35.0,2,1,12.5,1.2551231931811344,1.0
824,4,1.0,26.0,46.0,39.0,2,1,13.5,1.277079954821602,1.0
825,4,1.0,27.0,48.0,35.0,3,1,12.5,1.049185794836376,1.0
826,4,1.0,28.0,55.0,58.0,4,3,14.0,2.596661327039328,0.0
827,4,1.0,29.0,51.0,35.0,4,2,16.0,1.2661186407876812,1.0
828,4,1.0,30.0,43.0,37.0,3,1,14.0,1.2445441751569888,1.0
829,4,1.0,31.0,52.0,43.0,4,2,17.0,2.842687923233825,1.0
830,4,1.0,32.0,58.0,54.0,4,3,16.5,1.4246448487156158,0.0
831,4,1.0,33.0,46.0,38.0,3,1,15.5,1.1009295595704316,1.0
832,4,1.0,34.0,34.0,32.0,2,1,17.0,1.4463715500787655,1.0
833,4,1.0,35.0,37.0,40.0,2,1,18.0,1.2630595900482149,1.0
834,4,1.0,36.0,43.0,28.0,2,1,19.0,1.5497375640297832,1.0
835,4,1.0,37.0,59.0,60.0,4,3,18.0,1.8338524480768683,1.0
836,4,1.0,38.0,53.0,36.0,4,2,20.5,1.2577743477322656,1.0
837,4,1.0,39.0,45.0,26.0,3,1,18.5,1.2891966902716376,1.0
838,4,1.0,40.0,52.0,51.0,4,3,20.0,2.491628912091983,0.0
839,4,1.0,41.0,54.0,45.0,4,3,21.0,1.6413728932348022,1.0
840,4,1.0,42.0,59.0,40.0,4,2,22.5,1.0673916182277026,1.0
841,4,1.0,43.0,48.0,57.0,4,3,22.5,1.2757610335920615,1.0
842,4,1.0,44.0,50.0,36.0,3,1,21.0,1.1746130191586417,1.0
843,4,1.0,45.0,50.0,42.0,3,1,22.0,1.1235969821827894,1.0
844,4,1.0,46.0,48.0,31.0,2,1,22.5,1.3700127011015866,1.0
845,4,1.0,47.0,47.0,39.0,3,1,23.5,1.287373616181867,1.0
846,4,1.0,48.0,30.0,33.0,2,1,24.0,1.450051149158753,1.0
847,4,1.0,49.0,49.0,32.0,4,2,25.0,1.3431960014568176,1.0
848,4,1.0,50.0,41.0,34.0,2,1,25.5,1.2972911255783401,1.0
849,4,1.0,51.0,39.0,41.0,2,1,26.5,1.214588552213172,1.0
850,4,1.0,52.0,55.0,55.0,4,3,25.5,1.1450434469170432,0.0
851,4,1.0,53.0,57.0,43.0,4,2,27.5,1.6784422939526848,1.0
852,4,1.0,54.0,46.0,39.0,3,1,26.5,1.366442329452184,1.0
853,4,1.0,55.0,37.0,33.0,2,1,28.5,1.4479430597402825,1.0
854,4,1.0,56.0,44.0,41.0,4,2,29.0,1.8189016021278803,1.0
855,4,1.0,57.0,55.0,56.0,4,3,28.0,1.5279425955232,0.0
856,4,1.0,58.0,47.0,30.0,2,1,30.0,1.621015972121313,1.0
857,4,1.0,59.0,51.0,36.0,4,2,31.0,1.1415399770685326,1.0
858,4,1.0,60.0,49.0,48.0,4,3,29.5,1.4635605343537463,1.0
859,4,1.0,61.0,42.0,37.0,2,1,31.5,1.8323167786638803,1.0
860,4,1.0,62.0,57.0,48.0,4,3,30.5,1.896443520712637,1.0
861,4,1.0,63.0,48.0,54.0,4,3,31.5,1.1960031634989718,0.0
862,4,1.0,64.0,33.0,36.0,2,1,32.5,1.109424381678764,1.0
863,4,1.0,65.0,54.0,47.0,4,3,32.5,1.4507918476738269,0.0
864,4,1.0,66.0,52.0,41.0,3,1,32.0,1.5973641372893326,1.0
865,4,1.0,67.0,44.0,42.0,3,1,33.0,1.4500091648642408,1.0
866,4,1.0,68.0,56.0,35.0,4,2,35.0,1.6799359790729795,1.0
867,4,1.0,69.0,50.0,35.0,3,1,34.0,1.4321689120297378,1.0
868,4,1.0,70.0,54.0,45.0,4,2,36.0,1.2939207766612526,1.0
869,4,1.0,71.0,53.0,52.0,4,3,36.0,1.4016511091540451,0.0
870,4,1.0,72.0,58.0,47.0,4,3,37.0,1.2166532919945894,1.0
871,4,1.0,73.0,53.0,30.0,3,1,36.0,1.060617810830081,1.0
872,4,1.0,74.0,52.0,45.0,4,2,38.0,1.8775352284064863,1.0
873,4,1.0,75.0,49.0,44.0,3,1,37.0,1.2530714241584064,1.0
874,4,1.0,76.0,38.0,34.0,2,1,37.5,1.2890652760179364,1.0
875,4,1.0,77.0,53.0,36.0,3,1,38.5,1.033158034684675,1.0
876,4,1.0,78.0,46.0,31.0,2,1,39.0,1.2665879774049245,1.0
877,4,1.0,79.0,60.0,40.0,4,2,40.0,1.587605007667662,1.0
878,4,1.0,80.0,44.0,43.0,3,1,40.0,1.3104530310101836,1.0
879,4,2.0,1.0,54.0,55.0,4,3,1.0,1.3354381231711159,1.0
880,4,2.0,2.0,40.0,35.0,2,1,1.0,1.3109087141983764,0.0
881,4,2.0,3.0,50.0,45.0,4,3,2.0,0.9599428877063474,0.0
882,4,2.0,4.0,49.0,33.0,4,2,2.5,0.8086212528596661,0.0
883,4,2.0,5.0,38.0,41.0,2,1,2.5,1.015139263266974,1.0
884,4,2.0,6.0,60.0,50.0,4,3,3.5,1.6599459938624932,0.0
885,4,2.0,7.0,56.0,43.0,4,2,4.5,1.2616396334469755,1.0
886,4,2.0,8.0,53.0,34.0,4,2,5.5,1.1434258569333906,1.0
887,4,2.0,9.0,58.0,46.0,4,3,5.5,1.0819724562552435,1.0
888,4,2.0,10.0,50.0,36.0,3,1,4.0,2.0802705563455675,0.0
889,4,2.0,11.0,60.0,37.0,3,1,5.0,1.3306682977963646,1.0
890,4,2.0,12.0,53.0,38.0,3,1,6.0,1.122756272299739,1.0
891,4,2.0,13.0,50.0,48.0,4,3,8.0,1.0294060724318117,0.0
892,4,2.0,14.0,64.0,40.0,4,2,7.5,1.2522406130119634,1.0
893,4,2.0,15.0,44.0,37.0,4,2,8.5,1.1332735085597958,1.0
894,4,2.0,16.0,57.0,46.0,4,2,9.5,2.1125950491968983,1.0
895,4,2.0,17.0,52.0,45.0,4,3,10.5,1.0414531753940537,0.0
896,4,2.0,18.0,51.0,44.0,4,2,11.0,3.7777436821306765,1.0
897,4,2.0,19.0,59.0,52.0,4,3,12.0,1.9228724629792848,1.0
898,4,2.0,20.0,32.0,36.0,2,1,8.0,2.301824746635248,0.0
899,4,2.0,21.0,48.0,35.0,3,1,9.0,2.188593447650419,1.0
900,4,2.0,22.0,43.0,37.0,2,1,9.5,2.477713678721557,0.0
901,4,2.0,23.0,55.0,50.0,4,3,13.5,1.6684561760775978,1.0
902,4,2.0,24.0,47.0,28.0,3,1,11.0,1.7318592863975937,1.0
903,4,2.0,25.0,54.0,55.0,4,3,15.0,1.0203446330251609,1.0
904,4,2.0,26.0,30.0,36.0,2,1,11.0,1.3552161388979584,0.0
905,4,2.0,27.0,51.0,43.0,4,2,15.0,1.0891913654359089,1.0
906,4,2.0,28.0,61.0,37.0,4,2,16.0,1.0386699239206791,1.0
907,4,2.0,29.0,49.0,42.0,3,1,13.0,1.968096374092056,1.0
908,4,2.0,30.0,55.0,58.0,4,3,17.5,1.4416481463595119,1.0
909,4,2.0,31.0,48.0,50.0,4,3,18.5,1.6093211276220245,1.0
910,4,2.0,32.0,53.0,31.0,3,1,15.0,0.9502533905724704,1.0
911,4,2.0,33.0,57.0,47.0,4,3,20.0,1.2159897353521956,0.0
912,4,2.0,34.0,53.0,38.0,4,2,18.5,2.348327642699587,1.0
913,4,2.0,35.0,53.0,42.0,4,2,19.5,1.0626729932100716,1.0
914,4,2.0,36.0,56.0,32.0,3,1,16.5,2.1841257043888618,1.0
915,4,2.0,37.0,60.0,53.0,4,3,22.5,1.2619454702526127,1.0
916,4,2.0,38.0,47.0,40.0,4,3,23.5,1.512138410269472,1.0
917,4,2.0,39.0,39.0,37.0,2,1,15.5,1.8535266977451101,0.0
918,4,2.0,40.0,43.0,39.0,3,1,19.0,1.5919549901063874,1.0
919,4,2.0,41.0,58.0,45.0,4,2,22.0,2.0471882981910308,1.0
920,4,2.0,42.0,48.0,41.0,2,1,17.5,1.0446559284719117,0.0
921,4,2.0,43.0,52.0,41.0,4,2,23.5,1.3188618365147704,1.0
922,4,2.0,44.0,56.0,52.0,4,3,26.0,1.2725982167939949,1.0
923,4,2.0,45.0,54.0,29.0,3,1,21.0,1.2151053344969114,1.0
924,4,2.0,46.0,36.0,32.0,2,1,19.5,0.9264226958221116,0.0
925,4,2.0,47.0,42.0,40.0,2,1,20.5,1.6737441490804486,0.0
926,4,2.0,48.0,35.0,30.0,2,1,21.5,0.8530457557117188,1.0
927,4,2.0,49.0,59.0,49.0,4,3,27.5,1.3194137763766776,1.0
928,4,2.0,50.0,38.0,39.0,2,1,22.5,0.9880105827724036,0.0
929,4,2.0,51.0,56.0,31.0,3,1,24.5,1.4266338119650754,1.0
930,4,2.0,52.0,49.0,44.0,4,2,27.5,1.2709475172432576,1.0
931,4,2.0,53.0,50.0,38.0,2,1,24.5,1.4571495668278658,0.0
932,4,2.0,54.0,52.0,39.0,4,2,29.0,1.3530227155515604,1.0
933,4,2.0,55.0,47.0,33.0,3,1,26.0,2.1135890188197664,1.0
934,4,2.0,56.0,55.0,37.0,4,2,30.0,1.1195620526159469,1.0
935,4,2.0,57.0,41.0,38.0,2,1,27.0,1.7635379720632045,0.0
936,4,2.0,58.0,42.0,36.0,2,1,28.0,1.0106397757826926,1.0
937,4,2.0,59.0,39.0,33.0,2,1,29.0,0.9178684812995924,0.0
938,4,2.0,60.0,54.0,52.0,4,3,31.0,1.265145492643569,0.0
939,4,2.0,61.0,45.0,35.0,2,1,30.0,0.8320962757879897,0.0
940,4,2.0,62.0,46.0,40.0,3,1,29.5,0.7521861699624424,1.0
941,4,2.0,63.0,51.0,34.0,3,1,30.5,0.8836758580400783,1.0
942,4,2.0,64.0,51.0,40.0,4,2,33.5,1.3804442620967166,1.0
943,4,2.0,65.0,48.0,44.0,4,3,33.5,3.848502918592203,1.0
944,4,2.0,66.0,57.0,51.0,4,3,34.5,1.3805371054113493,1.0
945,4,2.0,67.0,54.0,44.0,4,3,35.5,1.2178909753238258,1.0
946,4,2.0,68.0,62.0,40.0,4,2,36.0,1.0951746393020585,1.0
947,4,2.0,69.0,49.0,39.0,3,1,33.0,1.2615867264103144,1.0
948,4,2.0,70.0,56.0,46.0,4,2,37.0,1.0373738721827976,1.0
949,4,2.0,71.0,54.0,46.0,3,1,34.0,1.1436269036712474,0.0
950,4,2.0,72.0,35.0,34.0,2,1,34.5,1.7549137837158924,0.0
951,4,2.0,73.0,48.0,26.0,3,1,35.5,1.1038561720488358,1.0
952,4,2.0,74.0,47.0,43.0,2,1,36.0,1.4856722624099348,0.0
953,4,2.0,75.0,51.0,44.0,3,1,37.0,1.3964245765819214,1.0
954,4,2.0,76.0,57.0,33.0,3,1,38.0,1.2080492424574911,1.0
955,4,2.0,77.0,42.0,30.0,3,1,39.0,1.2764061581056012,1.0
956,4,2.0,78.0,41.0,42.0,2,1,38.5,1.5301425042489427,0.0
957,4,2.0,79.0,46.0,36.0,4,2,39.5,1.2696746763376725,1.0
958,5,0.0,1.0,55.0,51.0,4,3,1.0,1.1145735733980473,1.0
959,5,0.0,2.0,54.0,37.0,4,2,1.5,1.0501155917636424,1.0
960,5,0.0,3.0,54.0,50.0,4,2,2.5,0.8129826634540223,1.0
961,5,0.0,4.0,64.0,32.0,4,2,3.5,0.8329867116399328,1.0
962,5,0.0,5.0,42.0,34.0,3,1,1.5,1.2333475668383471,0.0
963,5,0.0,6.0,47.0,37.0,2,1,3.0,1.5921213281735618,1.0
964,5,0.0,7.0,50.0,40.0,3,1,3.0,1.378170240232066,1.0
965,5,0.0,8.0,50.0,26.0,3,1,4.0,1.37670524731584,1.0
966,5,0.0,9.0,56.0,39.0,4,2,5.0,1.6487259647465182,0.0
967,5,0.0,10.0,58.0,34.0,3,1,5.0,1.4087787618354923,1.0
968,5,0.0,11.0,52.0,46.0,4,3,6.0,2.4624721857853733,1.0
969,5,0.0,12.0,54.0,53.0,4,3,7.0,1.0461595647620925,1.0
970,5,0.0,13.0,48.0,44.0,4,3,8.0,1.2108507779112188,1.0
971,5,0.0,14.0,56.0,46.0,3,1,7.5,1.781553240647554,1.0
972,5,0.0,15.0,41.0,34.0,2,1,6.5,1.318175162225998,1.0
973,5,0.0,16.0,42.0,36.0,2,1,7.5,1.1418008695072783,1.0
974,5,0.0,17.0,40.0,30.0,2,1,8.5,1.4303228957705871,1.0
975,5,0.0,18.0,57.0,47.0,4,3,9.5,1.0808210513878294,1.0
976,5,0.0,19.0,49.0,49.0,4,3,10.5,1.074394470163497,0.0
977,5,0.0,20.0,54.0,41.0,3,1,11.0,0.851128798886748,1.0
978,5,0.0,21.0,52.0,38.0,4,2,10.0,1.5165765723331788,0.0
979,5,0.0,22.0,54.0,44.0,4,2,11.0,1.068259044334809,1.0
980,5,0.0,23.0,56.0,33.0,4,2,12.0,1.1719687327095016,1.0
981,5,0.0,24.0,44.0,37.0,2,1,11.5,1.681326835755499,1.0
982,5,0.0,25.0,48.0,60.0,4,3,13.5,1.0411286862481577,0.0
983,5,0.0,26.0,47.0,33.0,3,1,13.0,1.18465737358747,1.0
984,5,0.0,27.0,49.0,36.0,3,1,14.0,1.0605862634047298,1.0
985,5,0.0,28.0,41.0,42.0,2,1,13.5,1.789004156388728,1.0
986,5,0.0,29.0,57.0,35.0,3,1,15.5,1.3721351657350171,1.0
987,5,0.0,30.0,39.0,40.0,2,1,15.0,1.5928330034366809,0.0
988,5,0.0,31.0,47.0,40.0,4,3,16.0,1.7964093337659506,0.0
989,5,0.0,32.0,60.0,40.0,4,2,15.5,1.1719605407633935,1.0
990,5,0.0,33.0,50.0,53.0,4,3,17.5,1.0217987669075228,1.0
991,5,0.0,34.0,59.0,50.0,4,3,18.5,1.0428623067082299,1.0
992,5,0.0,35.0,43.0,32.0,3,1,18.5,1.3271873262410736,1.0
993,5,0.0,36.0,56.0,44.0,4,3,20.0,1.4651973729796737,0.0
994,5,0.0,37.0,34.0,38.0,2,1,17.0,1.894518803415849,1.0
995,5,0.0,38.0,44.0,40.0,4,2,18.5,1.85644400617548,1.0
996,5,0.0,39.0,53.0,46.0,4,2,19.5,1.394655506505842,1.0
997,5,0.0,40.0,55.0,52.0,4,3,22.0,1.3600042598118307,1.0
998,5,0.0,41.0,36.0,39.0,2,1,19.0,1.9577490172223408,0.0
999,5,0.0,42.0,54.0,32.0,3,1,21.5,1.5203462325753208,0.0
1000,5,0.0,43.0,42.0,29.0,2,1,20.5,2.199173500967845,0.0
1001,5,0.0,44.0,51.0,48.0,4,3,23.5,1.596922490884026,1.0
1002,5,0.0,45.0,59.0,38.0,4,2,22.5,1.120567688168194,1.0
1003,5,0.0,46.0,56.0,41.0,3,1,23.5,1.895484428988312,1.0
1004,5,0.0,47.0,62.0,47.0,4,3,25.5,1.67691752110386,1.0
1005,5,0.0,48.0,52.0,45.0,4,2,24.0,1.088810928874409,1.0
1006,5,0.0,49.0,37.0,38.0,2,1,23.0,1.6612497427213384,1.0
1007,5,0.0,50.0,52.0,31.0,3,1,25.5,1.2449992439514972,1.0
1008,5,0.0,51.0,45.0,33.0,2,1,24.5,1.6204135771940855,0.0
1009,5,0.0,52.0,55.0,48.0,4,3,27.5,0.9840953378616176,1.0
1010,5,0.0,53.0,50.0,42.0,4,2,26.5,0.9249358382940044,0.0
1011,5,0.0,54.0,35.0,42.0,2,1,26.0,0.9913656894705128,1.0
1012,5,0.0,55.0,55.0,33.0,3,1,28.0,1.263618170690279,1.0
1013,5,0.0,56.0,40.0,38.0,2,1,27.5,2.3716296544334905,1.0
1014,5,0.0,57.0,53.0,30.0,4,2,28.5,1.062784094109702,1.0
1015,5,0.0,58.0,61.0,50.0,4,3,30.0,1.3111468143397358,1.0
1016,5,0.0,59.0,48.0,30.0,3,1,30.0,1.7572658289718674,1.0
1017,5,0.0,60.0,57.0,51.0,4,3,31.5,1.2991391289297098,1.0
1018,5,0.0,61.0,43.0,43.0,2,1,29.5,1.3777777095119743,1.0
1019,5,0.0,62.0,46.0,37.0,4,2,31.0,1.3687733961114643,1.0
1020,5,0.0,63.0,60.0,53.0,4,3,33.0,1.401457210567969,1.0
1021,5,0.0,64.0,53.0,43.0,4,2,32.5,1.378533416481332,1.0
1022,5,0.0,65.0,38.0,39.0,2,1,31.5,1.4355124932289982,0.0
1023,5,0.0,66.0,49.0,35.0,3,1,33.0,1.8299577398011024,1.0
1024,5,0.0,67.0,49.0,51.0,4,3,35.0,1.4888854073124094,1.0
1025,5,0.0,68.0,45.0,35.0,3,1,34.5,1.105289027195795,1.0
1026,5,0.0,69.0,57.0,55.0,4,3,36.5,1.1684929585107966,0.0
1027,5,0.0,70.0,58.0,48.0,4,2,35.0,1.5064516690581513,1.0
1028,5,0.0,71.0,34.0,37.0,2,1,34.0,1.8730852607441195,0.0
1029,5,0.0,72.0,51.0,39.0,4,2,36.5,1.1987918928416548,1.0
1030,5,0.0,73.0,43.0,44.0,2,1,35.5,1.4892642847908064,0.0
1031,5,0.0,74.0,46.0,28.0,3,1,37.0,1.7107140748212255,1.0
1032,5,0.0,75.0,52.0,39.0,3,1,38.0,1.3259899368777042,1.0
1033,5,0.0,76.0,36.0,36.0,2,1,37.5,1.7755550299061724,1.0
1034,5,0.0,77.0,58.0,41.0,4,2,38.5,1.1130973165572868,1.0
1035,5,0.0,78.0,35.0,36.0,2,1,39.0,1.6757470968941561,1.0
1036,5,0.0,79.0,51.0,46.0,4,2,40.0,1.465781049094403,1.0
1037,5,0.0,80.0,45.0,31.0,3,1,40.0,1.5827603238139998,1.0
1038,5,1.0,1.0,42.0,33.0,2,1,1.0,1.3123684382089778,0.0
1039,5,1.0,2.0,33.0,42.0,2,1,2.0,1.10620481843398,1.0
1040,5,1.0,3.0,55.0,53.0,4,3,1.0,1.184792199356707,1.0
1041,5,1.0,4.0,51.0,35.0,4,2,2.5,1.2805362447506925,1.0
1042,5,1.0,5.0,42.0,41.0,3,1,2.5,1.7790226121587691,1.0
1043,5,1.0,6.0,57.0,52.0,4,3,3.0,0.9970061852600338,1.0
1044,5,1.0,7.0,43.0,32.0,2,1,4.0,1.379829109190723,1.0
1045,5,1.0,8.0,44.0,46.0,4,3,4.0,1.4115131649678003,1.0
1046,5,1.0,9.0,53.0,46.0,4,2,5.0,1.793385481892983,0.0
1047,5,1.0,10.0,55.0,47.0,4,3,5.5,1.2712220027460717,0.0
1048,5,1.0,11.0,50.0,36.0,3,1,5.5,1.3600482915189789,1.0
1049,5,1.0,12.0,52.0,36.0,3,1,6.5,1.380766745616711,1.0
1050,5,1.0,13.0,59.0,38.0,4,2,6.5,1.6982374005319798,1.0
1051,5,1.0,14.0,47.0,41.0,3,1,7.5,1.3537012404312918,1.0
1052,5,1.0,15.0,54.0,37.0,4,2,7.5,1.6280505183622154,1.0
1053,5,1.0,16.0,42.0,34.0,2,1,8.0,2.57035976635143,1.0
1054,5,1.0,17.0,54.0,54.0,4,3,9.0,2.078103373477461,1.0
1055,5,1.0,18.0,40.0,42.0,2,1,9.0,1.4422063366746445,1.0
1056,5,1.0,19.0,46.0,49.0,4,3,10.0,1.6947926874599943,0.0
1057,5,1.0,20.0,50.0,28.0,3,1,10.5,1.2941533061157315,1.0
1058,5,1.0,21.0,55.0,30.0,3,1,11.5,1.184481246758878,1.0
1059,5,1.0,22.0,43.0,38.0,2,1,11.0,1.3880705476694857,0.0
1060,5,1.0,23.0,55.0,35.0,3,1,13.0,1.4003366206925418,1.0
1061,5,1.0,24.0,48.0,49.0,4,3,12.5,1.1852857640706134,0.0
1062,5,1.0,25.0,57.0,60.0,4,3,13.5,1.2600516024294848,0.0
1063,5,1.0,26.0,39.0,44.0,2,1,12.5,1.4008728517901543,1.0
1064,5,1.0,27.0,47.0,29.0,2,1,13.5,2.517961011118132,0.0
1065,5,1.0,28.0,40.0,40.0,2,1,14.5,1.5405424501495872,1.0
1066,5,1.0,29.0,61.0,44.0,4,2,13.5,1.4444058740346009,1.0
1067,5,1.0,30.0,48.0,37.0,4,2,14.5,1.3649655067893036,1.0
1068,5,1.0,31.0,56.0,49.0,4,3,15.5,1.0496698133983955,0.0
1069,5,1.0,32.0,51.0,53.0,4,3,16.5,1.4093678992467176,0.0
1070,5,1.0,33.0,56.0,50.0,4,3,17.5,1.0921273014673716,0.0
1071,5,1.0,34.0,52.0,41.0,4,2,17.0,1.4468067967209208,1.0
1072,5,1.0,35.0,48.0,31.0,2,1,17.0,2.043114891694131,1.0
1073,5,1.0,36.0,43.0,38.0,3,1,18.5,1.097290957764926,1.0
1074,5,1.0,37.0,60.0,39.0,4,2,18.5,1.2463099552278436,1.0
1075,5,1.0,38.0,38.0,34.0,2,1,19.0,1.4965807160915574,1.0
1076,5,1.0,39.0,50.0,45.0,4,2,20.0,1.864062856797318,1.0
1077,5,1.0,40.0,56.0,40.0,3,1,20.0,1.1894220138738092,1.0
1078,5,1.0,41.0,47.0,32.0,4,2,21.0,1.2811448380334696,1.0
1079,5,1.0,42.0,62.0,44.0,4,2,22.0,1.113607606494952,1.0
1080,5,1.0,43.0,51.0,38.0,3,1,21.0,1.1403133487410742,1.0
1081,5,1.0,44.0,40.0,36.0,3,1,22.0,1.0440347789044608,1.0
1082,5,1.0,45.0,50.0,46.0,3,1,23.0,1.0046079693292995,1.0
1083,5,1.0,46.0,53.0,36.0,4,2,23.0,1.1758667334306665,1.0
1084,5,1.0,47.0,58.0,44.0,4,3,24.0,1.0367640859649327,0.0
1085,5,1.0,48.0,58.0,41.0,4,2,24.5,1.3525902078263243,1.0
1086,5,1.0,49.0,49.0,48.0,4,3,25.5,1.0436330322445428,0.0
1087,5,1.0,50.0,59.0,51.0,4,3,26.5,1.6323745002491703,1.0
1088,5,1.0,51.0,39.0,35.0,2,1,24.5,1.8079091185563807,1.0
1089,5,1.0,52.0,52.0,46.0,4,2,27.0,1.2590880248435496,1.0
1090,5,1.0,53.0,53.0,37.0,3,1,26.0,1.3766072853022706,1.0
1091,5,1.0,54.0,56.0,48.0,4,3,28.5,1.3669226990959942,1.0
1092,5,1.0,55.0,57.0,30.0,3,1,27.5,1.2448241411166237,1.0
1093,5,1.0,56.0,51.0,37.0,4,2,28.5,1.094980146479429,1.0
1094,5,1.0,57.0,45.0,32.0,3,1,28.5,1.1637982910915523,1.0
1095,5,1.0,58.0,55.0,46.0,4,3,31.0,1.0835892462964694,0.0
1096,5,1.0,59.0,49.0,40.0,4,2,30.0,1.3041683007886604,1.0
1097,5,1.0,60.0,54.0,50.0,4,2,31.0,1.2944178376883428,1.0
1098,5,1.0,61.0,34.0,37.0,2,1,29.0,1.6631352555050398,1.0
1099,5,1.0,62.0,45.0,33.0,2,1,30.0,1.3012113498043618,0.0
1100,5,1.0,63.0,38.0,37.0,2,1,31.0,1.855256856743836,0.0
1101,5,1.0,64.0,52.0,39.0,3,1,31.5,1.258543260469196,1.0
1102,5,1.0,65.0,64.0,45.0,4,3,33.5,1.2285395775070356,0.0
1103,5,1.0,66.0,30.0,31.0,2,1,32.5,1.2643434991969116,0.0
1104,5,1.0,67.0,54.0,43.0,3,1,33.5,1.6007925024587166,1.0
1105,5,1.0,68.0,54.0,48.0,4,3,35.0,1.0440730079835705,1.0
1106,5,1.0,69.0,52.0,42.0,4,2,35.0,1.3742336691011587,1.0
1107,5,1.0,70.0,50.0,34.0,4,2,36.0,1.6360980807976375,1.0
1108,5,1.0,71.0,60.0,51.0,4,3,37.0,1.3206409378135504,1.0
1109,5,1.0,72.0,58.0,26.0,3,1,35.5,1.0663895741117813,1.0
1110,5,1.0,73.0,57.0,41.0,4,2,37.5,1.1003974117547841,1.0
1111,5,1.0,74.0,35.0,39.0,2,1,36.0,1.886906096752682,0.0
1112,5,1.0,75.0,47.0,34.0,3,1,37.0,1.0603077372588814,1.0
1113,5,1.0,76.0,43.0,35.0,2,1,37.5,1.8901774136456884,0.0
1114,5,1.0,77.0,36.0,39.0,2,1,38.5,1.223896109747329,0.0
1115,5,1.0,78.0,53.0,56.0,4,3,39.5,1.499027035809377,1.0
1116,5,1.0,79.0,40.0,33.0,2,1,39.5,1.3328493258886738,0.0
1117,5,1.0,80.0,44.0,36.0,3,1,40.0,1.7482758514761372,1.0
1118,5,2.0,1.0,41.0,40.0,2,1,1.0,1.3747876494135198,1.0
1119,5,2.0,2.0,57.0,31.0,3,1,1.5,1.5149958681877251,0.0
1120,5,2.0,3.0,39.0,30.0,2,1,2.5,1.470954262662417,1.0
1121,5,2.0,4.0,34.0,43.0,2,1,3.5,1.2396628741371387,1.0
1122,5,2.0,5.0,50.0,36.0,3,1,3.5,1.0700691229531003,1.0
1123,5,2.0,6.0,52.0,46.0,4,2,2.5,1.5330246335215634,1.0
1124,5,2.0,7.0,56.0,42.0,4,2,3.5,1.1636737052549506,1.0
1125,5,2.0,8.0,40.0,39.0,3,1,4.5,1.1047971691359637,1.0
1126,5,2.0,9.0,55.0,39.0,4,2,4.5,2.410912422299589,1.0
1127,5,2.0,10.0,52.0,39.0,4,2,5.5,2.2922288815916545,1.0
1128,5,2.0,11.0,43.0,34.0,2,1,7.5,1.933699854626866,0.0
1129,5,2.0,12.0,57.0,51.0,4,3,4.5,1.2635154300414797,0.0
1130,5,2.0,13.0,53.0,48.0,4,3,5.5,1.0470739906759263,1.0
1131,5,2.0,14.0,33.0,37.0,2,1,8.5,1.3974875303229055,1.0
1132,5,2.0,15.0,53.0,60.0,4,3,6.5,1.48416616405666,1.0
1133,5,2.0,16.0,53.0,33.0,3,1,8.0,1.0604340297513772,1.0
1134,5,2.0,17.0,41.0,37.0,2,1,10.0,1.2678701317236118,1.0
1135,5,2.0,18.0,50.0,36.0,3,1,9.5,1.140413017411447,1.0
1136,5,2.0,19.0,59.0,45.0,4,3,8.5,1.083470463087906,0.0
1137,5,2.0,20.0,60.0,32.0,4,2,10.0,1.11749400196004,1.0
1138,5,2.0,21.0,46.0,51.0,4,3,10.0,1.1797432302955713,1.0
1139,5,2.0,22.0,57.0,46.0,4,3,11.0,1.1095911638949474,0.0
1140,5,2.0,23.0,50.0,42.0,4,2,12.0,0.9973478576521302,1.0
1141,5,2.0,24.0,54.0,56.0,4,3,12.5,1.570931837210992,0.0
1142,5,2.0,25.0,54.0,28.0,3,1,12.5,1.2448821673970087,1.0
1143,5,2.0,26.0,60.0,40.0,4,2,13.5,1.5856292113858217,1.0
1144,5,2.0,27.0,49.0,43.0,4,3,14.5,1.3157155305980268,0.0
1145,5,2.0,28.0,57.0,50.0,4,3,15.5,1.4045394300528642,0.0
1146,5,2.0,29.0,49.0,46.0,4,2,15.5,1.1255869614269614,1.0
1147,5,2.0,30.0,44.0,42.0,3,1,14.5,1.1837299770932077,1.0
1148,5,2.0,31.0,56.0,30.0,3,1,15.5,1.0765574851002384,1.0
1149,5,2.0,32.0,55.0,35.0,4,2,16.5,1.4586199234263404,1.0
1150,5,2.0,33.0,46.0,35.0,3,1,16.5,1.517665759749434,1.0
1151,5,2.0,34.0,40.0,40.0,2,1,16.0,1.4059982790085996,0.0
1152,5,2.0,35.0,38.0,39.0,2,1,17.0,1.1037066163953568,0.0
1153,5,2.0,36.0,49.0,33.0,3,1,18.5,0.9510391312169304,0.0
1154,5,2.0,37.0,47.0,39.0,2,1,18.5,1.5440813705945402,1.0
1155,5,2.0,38.0,52.0,51.0,4,3,19.5,1.3436992163378818,1.0
1156,5,2.0,39.0,55.0,38.0,4,2,19.5,1.09822688753502,1.0
1157,5,2.0,40.0,44.0,34.0,2,1,20.0,1.7452468796363974,0.0
1158,5,2.0,41.0,51.0,53.0,4,3,21.0,1.7382765580314299,1.0
1159,5,2.0,42.0,40.0,33.0,2,1,21.0,1.3234091327221904,0.0
1160,5,2.0,43.0,48.0,44.0,3,1,22.0,1.1220685208454595,1.0
1161,5,2.0,44.0,42.0,26.0,2,1,22.5,1.1947604316746947,1.0
1162,5,2.0,45.0,45.0,46.0,2,1,23.5,1.0180973728774916,1.0
1163,5,2.0,46.0,54.0,53.0,4,3,22.5,1.2794904063784998,1.0
1164,5,2.0,47.0,64.0,42.0,4,3,23.5,1.0057545003646735,1.0
1165,5,2.0,48.0,44.0,38.0,4,2,24.0,0.9605684117905184,1.0
1166,5,2.0,49.0,47.0,35.0,3,1,25.0,1.1535518739592592,1.0
1167,5,2.0,50.0,50.0,54.0,4,3,25.5,1.2427229071026886,1.0
1168,5,2.0,51.0,54.0,43.0,4,2,25.5,0.9159977431190782,1.0
1169,5,2.0,52.0,51.0,34.0,4,2,26.5,0.8766965433742371,1.0
1170,5,2.0,53.0,58.0,52.0,4,3,27.5,0.9436312231900956,1.0
1171,5,2.0,54.0,51.0,45.0,4,3,28.5,0.9678373980741526,1.0
1172,5,2.0,55.0,50.0,37.0,3,1,27.5,0.9719449760677892,1.0
1173,5,2.0,56.0,41.0,36.0,2,1,27.0,1.1974559230666273,0.0
1174,5,2.0,57.0,61.0,36.0,4,2,29.0,1.0504866186274742,1.0
1175,5,2.0,58.0,47.0,38.0,3,1,29.0,0.7748768050860235,1.0
1176,5,2.0,59.0,43.0,32.0,2,1,29.0,1.6222376503865237,1.0
1177,5,2.0,60.0,35.0,38.0,2,1,30.0,1.0387588246885568,1.0
1178,5,2.0,61.0,62.0,49.0,4,3,31.0,1.0443627980548629,1.0
1179,5,2.0,62.0,48.0,48.0,4,2,31.5,0.9420682682603,1.0
1180,5,2.0,63.0,54.0,52.0,4,3,32.5,1.1237564029443092,1.0
1181,5,2.0,64.0,48.0,42.0,3,1,32.0,1.923357523465711,1.0
1182,5,2.0,65.0,55.0,29.0,3,1,33.0,0.9651992503004294,1.0
1183,5,2.0,66.0,52.0,38.0,3,1,34.0,0.9212999798273812,1.0
1184,5,2.0,67.0,36.0,34.0,2,1,33.0,1.107317216363299,0.0
1185,5,2.0,68.0,58.0,37.0,4,2,33.5,1.0576443309864771,1.0
1186,5,2.0,69.0,48.0,40.0,4,2,34.5,1.0446457615043985,1.0
1187,5,2.0,70.0,47.0,31.0,3,1,35.5,0.9221283903134464,1.0
1188,5,2.0,71.0,56.0,44.0,4,2,35.5,0.8594060771265504,1.0
1189,5,2.0,72.0,59.0,37.0,4,2,36.5,0.8117617222469562,1.0
1190,5,2.0,73.0,45.0,36.0,2,1,36.5,1.732692723197033,1.0
1191,5,2.0,74.0,53.0,37.0,4,2,38.0,0.8332352006527799,1.0
1192,5,2.0,75.0,55.0,32.0,3,1,37.0,0.8914939275500728,1.0
1193,5,2.0,76.0,30.0,41.0,2,1,38.5,1.519858811820086,1.0
1194,5,2.0,77.0,50.0,41.0,2,1,39.5,1.0808964855532397,1.0
1195,5,2.0,78.0,56.0,49.0,4,3,38.5,1.0922177541988276,1.0
1196,5,2.0,79.0,58.0,35.0,3,1,39.5,0.8097058852645205,1.0
1197,5,2.0,80.0,47.0,44.0,4,3,40.0,0.9427891594614266,1.0
1198,6,0.0,1.0,51.0,44.0,4,2,1.0,2.1333330147554648,0.0
1199,6,0.0,2.0,34.0,40.0,2,1,1.5,1.0745868073961446,0.0
1200,6,0.0,3.0,40.0,30.0,2,1,2.5,1.184881524886464,0.0
1201,6,0.0,4.0,47.0,43.0,3,1,2.0,1.5641479789478585,0.0
1202,6,0.0,5.0,45.0,35.0,2,1,4.0,1.2832886243479606,1.0
1203,6,0.0,6.0,53.0,37.0,3,1,3.5,1.135470444453631,1.0
1204,6,0.0,7.0,55.0,44.0,4,3,2.5,1.2710374862571143,0.0
1205,6,0.0,8.0,56.0,35.0,3,1,5.0,1.0067440651509971,1.0
1206,6,0.0,9.0,56.0,44.0,4,3,4.0,1.2438028362756768,1.0
1207,6,0.0,10.0,42.0,33.0,2,1,6.0,1.181809183028804,1.0
1208,6,0.0,11.0,40.0,37.0,2,1,7.0,1.1024109401447504,1.0
1209,6,0.0,12.0,57.0,32.0,3,1,7.5,1.1448912460614338,1.0
1210,6,0.0,13.0,53.0,41.0,3,1,8.5,1.1632949185355983,1.0
1211,6,0.0,14.0,47.0,42.0,4,3,6.0,0.9498383274391244,1.0
1212,6,0.0,15.0,59.0,39.0,4,2,6.0,1.5402894575427126,1.0
1213,6,0.0,16.0,50.0,45.0,4,2,7.0,1.1730502268673035,1.0
1214,6,0.0,17.0,48.0,39.0,3,1,10.0,1.1867772905434322,1.0
1215,6,0.0,18.0,59.0,37.0,4,2,8.0,1.2040006321494727,1.0
1216,6,0.0,19.0,42.0,36.0,2,1,11.0,1.3769290029958938,1.0
1217,6,0.0,20.0,50.0,33.0,3,1,11.5,1.2157278234841442,1.0
1218,6,0.0,21.0,52.0,45.0,4,3,9.5,1.0855470226000534,1.0
1219,6,0.0,22.0,38.0,39.0,2,1,12.5,1.3737245651157082,1.0
1220,6,0.0,23.0,54.0,44.0,3,1,13.5,1.1221918928540615,0.0
1221,6,0.0,24.0,51.0,51.0,4,3,11.0,0.9212970532347526,1.0
1222,6,0.0,25.0,46.0,26.0,2,1,14.0,1.0017786883036024,0.0
1223,6,0.0,26.0,50.0,37.0,3,1,15.5,1.1305432969460298,1.0
1224,6,0.0,27.0,60.0,50.0,4,2,11.5,1.015828994701451,1.0
1225,6,0.0,28.0,55.0,38.0,4,2,12.5,1.0116596073232813,1.0
1226,6,0.0,29.0,51.0,41.0,4,2,13.5,1.2343035279878904,1.0
1227,6,0.0,30.0,52.0,52.0,4,3,14.0,1.119367700372095,0.0
1228,6,0.0,31.0,55.0,49.0,4,3,15.0,1.0852070545420247,1.0
1229,6,0.0,32.0,50.0,34.0,3,1,17.5,1.2015300610611348,1.0
1230,6,0.0,33.0,50.0,47.0,4,3,16.5,1.5492460457380732,1.0
1231,6,0.0,34.0,35.0,38.0,2,1,17.5,1.7211650937454124,1.0
1232,6,0.0,35.0,54.0,55.0,4,3,17.5,0.9477155750766996,1.0
1233,6,0.0,36.0,64.0,35.0,4,2,17.0,1.085184867871476,1.0
1234,6,0.0,37.0,54.0,48.0,4,3,19.0,1.1163223238522733,0.0
1235,6,0.0,38.0,44.0,44.0,4,2,18.5,0.913430683892102,1.0
1236,6,0.0,39.0,37.0,34.0,2,1,19.5,1.149864814910302,1.0
1237,6,0.0,40.0,57.0,43.0,4,2,20.0,0.9449473612709198,1.0
1238,6,0.0,41.0,49.0,38.0,3,1,21.0,0.9684133492758064,1.0
1239,6,0.0,42.0,53.0,53.0,4,3,21.5,1.229373991146531,1.0
1240,6,0.0,43.0,57.0,46.0,4,3,22.5,1.2630635968962451,1.0
1241,6,0.0,44.0,40.0,31.0,2,1,21.5,1.2620880660630291,1.0
1242,6,0.0,45.0,58.0,36.0,4,2,22.5,1.0868396521539123,1.0
1243,6,0.0,46.0,56.0,30.0,3,1,23.5,1.0067792224903087,1.0
1244,6,0.0,47.0,37.0,42.0,2,1,23.5,0.9743791742940856,1.0
1245,6,0.0,48.0,46.0,43.0,4,3,24.5,1.241683838580684,1.0
1246,6,0.0,49.0,51.0,28.0,3,1,25.5,1.1209900579823395,1.0
1247,6,0.0,50.0,41.0,39.0,2,1,25.0,1.6767794648369545,1.0
1248,6,0.0,51.0,48.0,42.0,3,1,27.0,1.1545212850382995,1.0
1249,6,0.0,52.0,32.0,32.0,2,1,26.5,1.8035882331457744,1.0
1250,6,0.0,53.0,51.0,36.0,3,1,28.5,1.0426434632777273,1.0
1251,6,0.0,54.0,43.0,36.0,2,1,28.0,0.9851639441345696,1.0
1252,6,0.0,55.0,60.0,34.0,4,2,26.0,0.991544830557018,1.0
1253,6,0.0,56.0,49.0,40.0,4,2,27.0,1.0355389500653018,1.0
1254,6,0.0,57.0,56.0,49.0,4,3,28.0,1.2479473063162914,0.0
1255,6,0.0,58.0,48.0,52.0,4,3,29.0,0.9835255438549666,1.0
1256,6,0.0,59.0,53.0,47.0,4,3,30.0,1.149467161509051,0.0
1257,6,0.0,60.0,52.0,34.0,3,1,31.5,0.9961101646695172,1.0
1258,6,0.0,61.0,61.0,46.0,4,3,31.5,1.2297678898803497,0.0
1259,6,0.0,62.0,48.0,60.0,4,3,32.5,1.3621192298016922,0.0
1260,6,0.0,63.0,50.0,40.0,3,1,33.5,0.9893660995185201,1.0
1261,6,0.0,64.0,56.0,54.0,4,3,34.0,1.9100641126509568,0.0
1262,6,0.0,65.0,49.0,42.0,4,2,31.0,1.1655808282591806,1.0
1263,6,0.0,66.0,54.0,39.0,4,2,32.0,1.499300095880585,1.0
1264,6,0.0,67.0,48.0,36.0,2,1,32.0,1.4977122129428149,1.0
1265,6,0.0,68.0,57.0,30.0,4,2,33.5,1.1223233062098643,1.0
1266,6,0.0,69.0,53.0,46.0,4,2,34.5,1.0024654510874598,1.0
1267,6,0.0,70.0,52.0,38.0,4,2,35.5,1.0059415903474471,1.0
1268,6,0.0,71.0,45.0,33.0,3,1,35.5,1.2495638612589346,1.0
1269,6,0.0,72.0,33.0,35.0,2,1,35.0,1.4744165503004751,1.0
1270,6,0.0,73.0,41.0,46.0,2,1,36.0,1.6800989320702229,0.0
1271,6,0.0,74.0,58.0,55.0,4,3,38.0,1.1759781847002841,0.0
1272,6,0.0,75.0,54.0,43.0,4,2,38.0,1.1067666955549385,1.0
1273,6,0.0,76.0,36.0,29.0,2,1,37.5,1.4018767192536643,0.0
1274,6,0.0,77.0,62.0,47.0,4,2,39.5,1.1816962016762318,1.0
1275,6,0.0,78.0,58.0,38.0,3,1,38.5,1.2190612853864875,1.0
1276,6,0.0,79.0,40.0,31.0,3,1,39.5,0.9494731007100654,1.0
1277,6,0.0,80.0,39.0,41.0,2,1,40.0,1.5384404545604866,1.0
1278,6,1.0,1.0,48.0,37.0,2,1,1.0,1.4571641953560857,0.0
1279,6,1.0,2.0,38.0,30.0,2,1,2.0,1.3076082871650672,0.0
1280,6,1.0,3.0,55.0,42.0,4,3,1.0,1.491397545198538,1.0
1281,6,1.0,4.0,46.0,37.0,4,2,2.5,1.2289469830735698,1.0
1282,6,1.0,5.0,53.0,42.0,4,2,3.5,1.0440408821830258,1.0
1283,6,1.0,6.0,60.0,37.0,4,2,4.5,0.8851003537238284,1.0
1284,6,1.0,7.0,48.0,50.0,4,3,3.5,0.8907811653599538,1.0
1285,6,1.0,8.0,50.0,35.0,3,1,3.0,0.9176635592813228,1.0
1286,6,1.0,9.0,57.0,42.0,4,2,6.0,1.3404722074404845,1.0
1287,6,1.0,10.0,54.0,43.0,4,2,7.0,1.176591902138398,1.0
1288,6,1.0,11.0,51.0,46.0,3,1,4.0,2.378634645953639,1.0
1289,6,1.0,12.0,50.0,33.0,3,1,5.0,1.0983453181175946,1.0
1290,6,1.0,13.0,58.0,55.0,4,3,7.0,1.2022229678459553,1.0
1291,6,1.0,14.0,50.0,44.0,3,1,6.5,1.354430012489388,1.0
1292,6,1.0,15.0,54.0,39.0,4,2,8.5,1.416437660405336,1.0
1293,6,1.0,16.0,51.0,38.0,4,2,9.5,1.119749311103874,1.0
1294,6,1.0,17.0,41.0,40.0,2,1,8.5,2.2096667664496863,1.0
1295,6,1.0,18.0,45.0,26.0,3,1,8.0,1.287376774378913,1.0
1296,6,1.0,19.0,54.0,33.0,3,1,9.0,1.0419515804929915,1.0
1297,6,1.0,20.0,57.0,39.0,4,2,11.0,0.8960752462635355,1.0
1298,6,1.0,21.0,44.0,36.0,3,1,10.0,1.466770682328843,1.0
1299,6,1.0,22.0,54.0,51.0,4,3,11.5,0.9963402233753412,1.0
1300,6,1.0,23.0,51.0,47.0,4,2,12.5,1.369026110980485,1.0
1301,6,1.0,24.0,64.0,45.0,4,2,13.5,1.1144876568724842,1.0
1302,6,1.0,25.0,46.0,38.0,3,1,11.5,1.4461377614742332,1.0
1303,6,1.0,26.0,38.0,34.0,2,1,13.0,1.5130322795575917,1.0
1304,6,1.0,27.0,50.0,49.0,4,3,14.0,1.2554593715983628,1.0
1305,6,1.0,28.0,57.0,32.0,3,1,13.5,1.124830058637713,1.0
1306,6,1.0,29.0,47.0,37.0,3,1,14.5,1.2530085978467014,1.0
1307,6,1.0,30.0,50.0,37.0,2,1,15.0,1.3741054931806502,1.0
1308,6,1.0,31.0,55.0,53.0,4,3,16.0,1.0376657984282929,1.0
1309,6,1.0,32.0,51.0,35.0,4,2,16.5,1.119817236448739,1.0
1310,6,1.0,33.0,61.0,42.0,4,2,17.5,0.8931206644259646,1.0
1311,6,1.0,34.0,50.0,49.0,4,3,18.0,0.9685474932988428,1.0
1312,6,1.0,35.0,60.0,56.0,4,3,19.0,0.8964630009963912,1.0
1313,6,1.0,36.0,30.0,29.0,2,1,17.0,1.4031099567974934,1.0
1314,6,1.0,37.0,44.0,41.0,2,1,18.0,1.752923435165599,1.0
1315,6,1.0,38.0,51.0,30.0,3,1,18.5,0.9300792200667728,1.0
1316,6,1.0,39.0,58.0,49.0,4,3,20.5,0.906875034773293,1.0
1317,6,1.0,40.0,48.0,38.0,3,1,20.0,1.268069933750667,1.0
1318,6,1.0,41.0,53.0,52.0,4,3,22.0,1.0655595631889128,1.0
1319,6,1.0,42.0,56.0,58.0,4,3,23.0,1.1016784386864629,1.0
1320,6,1.0,43.0,52.0,37.0,4,2,22.0,1.0497530964912585,1.0
1321,6,1.0,44.0,43.0,36.0,2,1,20.5,1.4325277751513568,1.0
1322,6,1.0,45.0,52.0,43.0,4,3,24.5,1.1661252550187555,1.0
1323,6,1.0,46.0,33.0,34.0,2,1,21.5,1.7179702132002603,1.0
1324,6,1.0,47.0,41.0,42.0,2,1,22.5,1.0802338270265182,1.0
1325,6,1.0,48.0,55.0,35.0,4,2,25.0,1.0861091986960218,1.0
1326,6,1.0,49.0,44.0,41.0,2,1,24.0,2.1225332262456504,1.0
1327,6,1.0,50.0,34.0,34.0,2,1,25.0,1.5828967394810434,1.0
1328,6,1.0,51.0,40.0,35.0,2,1,26.0,1.498090410340751,0.0
1329,6,1.0,52.0,44.0,40.0,3,1,25.5,1.365751358421562,1.0
1330,6,1.0,53.0,53.0,39.0,3,1,26.5,0.870986217981681,1.0
1331,6,1.0,54.0,54.0,40.0,4,2,27.5,1.268243331113581,1.0
1332,6,1.0,55.0,49.0,54.0,4,3,27.5,0.9208854051644266,1.0
1333,6,1.0,56.0,47.0,28.0,3,1,28.0,1.365974249126225,1.0
1334,6,1.0,57.0,52.0,31.0,3,1,29.0,1.2619088660325133,1.0
1335,6,1.0,58.0,47.0,47.0,4,3,29.5,0.8807910196550209,1.0
1336,6,1.0,59.0,40.0,39.0,2,1,29.5,1.665452998903902,1.0
1337,6,1.0,60.0,59.0,52.0,4,3,30.5,1.1251891413655812,1.0
1338,6,1.0,61.0,56.0,36.0,4,2,30.5,0.99380275094245,1.0
1339,6,1.0,62.0,52.0,48.0,4,3,32.0,1.1059410100804143,1.0
1340,6,1.0,63.0,59.0,55.0,4,3,33.0,0.9004862976830736,1.0
1341,6,1.0,64.0,46.0,42.0,3,1,32.5,1.3865102312979616,1.0
1342,6,1.0,65.0,46.0,33.0,2,1,31.5,1.1078067383989492,1.0
1343,6,1.0,66.0,48.0,36.0,3,1,34.0,1.4443966198437008,1.0
1344,6,1.0,67.0,53.0,39.0,4,2,33.0,0.7943537995697625,1.0
1345,6,1.0,68.0,45.0,39.0,2,1,33.5,2.133740566825054,1.0
1346,6,1.0,69.0,62.0,56.0,4,3,35.5,1.2639056663733754,0.0
1347,6,1.0,70.0,49.0,60.0,4,3,36.5,2.1473744464851734,0.0
1348,6,1.0,71.0,48.0,34.0,4,2,35.5,1.1883317228084709,1.0
1349,6,1.0,72.0,56.0,36.0,4,2,36.5,1.039102129340108,1.0
1350,6,1.0,73.0,46.0,31.0,2,1,35.5,1.465371215423147,1.0
1351,6,1.0,74.0,40.0,43.0,3,1,37.0,1.4367043305310292,1.0
1352,6,1.0,75.0,32.0,32.0,2,1,37.0,1.3291116081682048,1.0
1353,6,1.0,76.0,44.0,41.0,4,2,38.5,0.9414917020146732,1.0
1354,6,1.0,77.0,57.0,53.0,4,3,39.5,1.3126200853537284,1.0
1355,6,1.0,78.0,43.0,36.0,2,1,38.5,1.5531116463978378,1.0
1356,6,1.0,79.0,45.0,35.0,3,1,39.5,1.4974176422258552,1.0
1357,6,1.0,80.0,40.0,38.0,2,1,40.0,1.4292861319313488,1.0
1358,6,2.0,1.0,49.0,50.0,4,2,1.0,1.48221021563063,1.0
1359,6,2.0,2.0,57.0,40.0,4,2,2.0,1.1352994364242477,0.0
1360,6,2.0,3.0,52.0,53.0,4,3,2.0,1.4803598473149575,1.0
1361,6,2.0,4.0,43.0,43.0,2,1,2.0,1.2766507138815086,0.0
1362,6,2.0,5.0,36.0,33.0,2,1,3.0,1.3756087254373597,1.0
1363,6,2.0,6.0,55.0,44.0,4,3,3.0,1.51879057387373,0.0
1364,6,2.0,7.0,33.0,38.0,2,1,4.0,0.931272180270298,1.0
1365,6,2.0,8.0,49.0,35.0,3,1,3.5,0.8935244618282923,0.0
1366,6,2.0,9.0,46.0,56.0,4,3,4.5,1.075506700886535,1.0
1367,6,2.0,10.0,60.0,45.0,4,3,5.5,0.8920420509084579,0.0
1368,6,2.0,11.0,51.0,41.0,4,2,6.5,1.048783709658892,1.0
1369,6,2.0,12.0,58.0,60.0,4,3,7.0,1.083997369002191,0.0
1370,6,2.0,13.0,53.0,49.0,4,3,8.0,0.9959719246458008,0.0
1371,6,2.0,14.0,60.0,30.0,4,2,8.5,1.6024588974862581,1.0
1372,6,2.0,15.0,43.0,31.0,2,1,6.5,1.3506156118385206,1.0
1373,6,2.0,16.0,50.0,36.0,3,1,7.0,1.132373526591664,1.0
1374,6,2.0,17.0,55.0,52.0,4,3,10.0,1.4878995606015906,1.0
1375,6,2.0,18.0,48.0,43.0,4,3,11.0,0.9808785034033464,1.0
1376,6,2.0,19.0,37.0,33.0,2,1,8.0,2.018478765820418,0.0
1377,6,2.0,20.0,58.0,45.0,4,2,11.5,1.161893062296258,1.0
1378,6,2.0,21.0,44.0,57.0,4,3,12.5,1.0913711942607731,0.0
1379,6,2.0,22.0,34.0,39.0,2,1,9.5,1.7054746804010392,1.0
1380,6,2.0,23.0,57.0,42.0,4,2,13.5,1.0333643150274838,1.0
1381,6,2.0,24.0,50.0,42.0,4,2,14.5,1.0222143184580543,0.0
1382,6,2.0,25.0,48.0,42.0,3,1,10.5,1.2089656676635059,1.0
1383,6,2.0,26.0,57.0,55.0,4,3,15.0,1.0878967616677069,1.0
1384,6,2.0,27.0,48.0,38.0,4,2,16.0,1.2283588656400752,1.0
1385,6,2.0,28.0,54.0,38.0,4,2,17.0,0.8456043256499015,1.0
1386,6,2.0,29.0,47.0,35.0,3,1,12.0,1.1075804343604432,1.0
1387,6,2.0,30.0,40.0,30.0,2,1,13.5,1.8472468219301843,0.0
1388,6,2.0,31.0,46.0,38.0,2,1,14.5,0.9178226206418004,1.0
1389,6,2.0,32.0,47.0,37.0,3,1,14.0,1.316539958022986,1.0
1390,6,2.0,33.0,51.0,33.0,3,1,15.0,1.083478883580483,1.0
1391,6,2.0,34.0,48.0,29.0,3,1,16.0,1.1371494634067858,1.0
1392,6,2.0,35.0,39.0,41.0,2,1,17.0,1.4581786381957045,0.0
1393,6,2.0,36.0,56.0,44.0,4,2,19.5,1.0312968586745228,1.0
1394,6,2.0,37.0,53.0,52.0,4,3,19.5,1.3636228033917632,0.0
1395,6,2.0,38.0,56.0,50.0,4,3,20.5,0.8780050565128477,1.0
1396,6,2.0,39.0,54.0,54.0,4,3,21.5,1.0467008933037505,1.0
1397,6,2.0,40.0,35.0,32.0,2,1,18.5,1.8809466676814282,0.0
1398,6,2.0,41.0,48.0,40.0,3,1,19.5,1.3492816809439323,1.0
1399,6,2.0,42.0,59.0,44.0,4,2,22.5,1.5291640369773631,1.0
1400,6,2.0,43.0,39.0,36.0,2,1,20.5,2.581678179273013,1.0
1401,6,2.0,44.0,54.0,40.0,4,2,24.0,1.1038295217203995,1.0
1402,6,2.0,45.0,41.0,30.0,2,1,22.0,1.6909454832548363,0.0
1403,6,2.0,46.0,56.0,39.0,3,1,21.5,1.3432305225780965,1.0
1404,6,2.0,47.0,51.0,32.0,3,1,22.5,1.0491188990495175,1.0
1405,6,2.0,48.0,40.0,34.0,3,1,23.5,2.7444184310472792,1.0
1406,6,2.0,49.0,40.0,46.0,2,1,24.5,2.4915938118986105,1.0
1407,6,2.0,50.0,55.0,26.0,3,1,25.0,1.1042640391278835,1.0
1408,6,2.0,51.0,45.0,37.0,3,1,26.0,1.0371524330073498,1.0
1409,6,2.0,52.0,49.0,41.0,3,1,27.0,0.8868589033572789,1.0
1410,6,2.0,53.0,34.0,36.0,2,1,27.0,1.3000228352038905,1.0
1411,6,2.0,54.0,51.0,32.0,4,2,26.5,1.086903822831573,1.0
1412,6,2.0,55.0,45.0,42.0,2,1,28.5,1.3410227782012498,1.0
1413,6,2.0,56.0,55.0,53.0,4,3,27.5,0.9886701207331045,1.0
1414,6,2.0,57.0,58.0,34.0,3,1,29.5,1.2318633355712336,1.0
1415,6,2.0,58.0,49.0,43.0,4,2,28.5,1.0466462799608962,1.0
1416,6,2.0,59.0,46.0,35.0,3,1,30.5,1.1210159993202071,1.0
1417,6,2.0,60.0,50.0,44.0,3,1,31.5,1.1742575230732657,1.0
1418,6,2.0,61.0,39.0,39.0,2,1,31.5,1.4135649985817054,1.0
1419,6,2.0,62.0,51.0,35.0,4,2,30.0,0.9757161771888148,1.0
1420,6,2.0,63.0,64.0,50.0,4,3,31.0,1.7354567228512678,1.0
1421,6,2.0,64.0,52.0,42.0,4,2,31.5,1.2366239123839478,1.0
1422,6,2.0,65.0,59.0,47.0,4,3,32.5,1.2196272161497743,1.0
1423,6,2.0,66.0,62.0,51.0,4,3,33.5,1.4009718444326609,0.0
1424,6,2.0,67.0,52.0,48.0,4,2,33.5,1.1630501824938622,1.0
1425,6,2.0,68.0,38.0,31.0,2,1,34.0,1.4020586499514138,1.0
1426,6,2.0,69.0,46.0,40.0,3,1,35.0,1.1754470699429476,1.0
1427,6,2.0,70.0,53.0,47.0,4,2,35.0,1.2818051894280416,1.0
1428,6,2.0,71.0,52.0,34.0,3,1,36.0,1.2029906266436683,1.0
1429,6,2.0,72.0,37.0,37.0,2,1,36.5,1.115709630414358,1.0
1430,6,2.0,73.0,41.0,36.0,2,1,37.5,1.0096778256518064,1.0
1431,6,2.0,74.0,56.0,53.0,4,3,36.5,0.997055316830938,1.0
1432,6,2.0,75.0,61.0,36.0,4,2,37.5,0.9004436310090114,1.0
1433,6,2.0,76.0,50.0,46.0,4,2,38.5,0.8689218336294289,1.0
1434,6,2.0,77.0,54.0,44.0,4,3,38.5,1.5318291680987386,1.0
1435,6,2.0,78.0,47.0,54.0,4,3,39.5,0.9691028427268976,1.0
1436,6,2.0,79.0,37.0,38.0,2,1,39.5,1.3272704558542046,1.0
1437,6,2.0,80.0,42.0,28.0,3,1,40.0,1.463699023137906,1.0
1438,7,0.0,1.0,56.0,40.0,4,2,1.0,2.0946581983549777,0.0
1439,7,0.0,2.0,54.0,40.0,4,2,2.0,1.739800120628047,0.0
1440,7,0.0,3.0,56.0,50.0,4,3,2.0,1.1276677520004341,1.0
1441,7,0.0,4.0,50.0,46.0,3,1,1.5,1.7676237606526684,0.0
1442,7,0.0,5.0,54.0,30.0,3,1,2.5,1.7325556112691631,1.0
1443,7,0.0,6.0,46.0,35.0,4,2,3.5,1.3920035963132025,1.0
1444,7,0.0,7.0,42.0,30.0,2,1,3.5,1.368245606070559,0.0
1445,7,0.0,8.0,47.0,42.0,3,1,4.0,1.072865960534159,0.0
1446,7,0.0,9.0,44.0,34.0,3,1,5.0,2.0883496315451566,0.0
1447,7,0.0,10.0,50.0,38.0,2,1,5.5,1.2266042522921907,0.0
1448,7,0.0,11.0,50.0,38.0,3,1,6.5,1.0336512648024154,0.0
1449,7,0.0,12.0,49.0,39.0,4,2,5.5,1.6407465421838197,1.0
1450,7,0.0,13.0,59.0,35.0,4,2,6.5,1.2105631800474157,1.0
1451,7,0.0,14.0,41.0,28.0,2,1,8.0,1.180575471546831,0.0
1452,7,0.0,15.0,42.0,32.0,3,1,8.0,1.3887602242848516,1.0
1453,7,0.0,16.0,55.0,37.0,3,1,9.0,0.9686203244258422,1.0
1454,7,0.0,17.0,38.0,41.0,2,1,10.0,1.1625621615015689,1.0
1455,7,0.0,18.0,46.0,32.0,3,1,10.5,1.910920251346056,1.0
1456,7,0.0,19.0,58.0,35.0,3,1,11.5,1.3545935425426023,1.0
1457,7,0.0,20.0,51.0,45.0,4,2,8.5,1.4419908474239946,1.0
1458,7,0.0,21.0,55.0,48.0,4,3,9.5,1.5392076983492868,1.0
1459,7,0.0,22.0,60.0,39.0,4,2,10.0,1.0343035573667976,1.0
1460,7,0.0,23.0,48.0,53.0,4,3,11.0,1.0385617204958637,1.0
1461,7,0.0,24.0,55.0,42.0,3,1,13.5,1.582930756294104,1.0
1462,7,0.0,25.0,40.0,37.0,2,1,13.5,1.0893265343808023,1.0
1463,7,0.0,26.0,37.0,33.0,2,1,14.5,1.3859264551226715,1.0
1464,7,0.0,27.0,49.0,33.0,3,1,15.5,1.124568082311043,1.0
1465,7,0.0,28.0,42.0,39.0,2,1,16.0,1.0497073558188958,1.0
1466,7,0.0,29.0,50.0,56.0,4,3,13.0,1.2231267239587849,1.0
1467,7,0.0,30.0,58.0,48.0,4,3,14.0,1.5218791077621745,1.0
1468,7,0.0,31.0,52.0,36.0,3,1,18.0,1.267603792512887,1.0
1469,7,0.0,32.0,47.0,46.0,4,2,14.0,1.9539387923611,1.0
1470,7,0.0,33.0,34.0,36.0,2,1,18.0,1.3834391417182132,1.0
1471,7,0.0,34.0,56.0,47.0,4,3,16.0,1.3633805480282035,1.0
1472,7,0.0,35.0,51.0,49.0,4,3,17.0,1.6149722818327064,1.0
1473,7,0.0,36.0,54.0,57.0,4,3,18.0,2.8642620475295644,0.0
1474,7,0.0,37.0,53.0,43.0,4,2,17.0,1.4096533838145433,1.0
1475,7,0.0,38.0,59.0,50.0,4,3,19.5,1.4399356650430946,0.0
1476,7,0.0,39.0,55.0,51.0,4,3,20.5,1.5563089593459836,0.0
1477,7,0.0,40.0,52.0,36.0,4,2,19.0,0.9173377042510538,1.0
1478,7,0.0,41.0,62.0,43.0,4,2,20.0,1.4015121855146615,1.0
1479,7,0.0,42.0,60.0,31.0,3,1,22.0,1.3906297200330755,1.0
1480,7,0.0,43.0,30.0,40.0,2,1,21.0,1.12307269051405,1.0
1481,7,0.0,44.0,47.0,36.0,3,1,23.5,1.3803517601147632,1.0
1482,7,0.0,45.0,48.0,51.0,4,3,23.5,1.8607640390529243,1.0
1483,7,0.0,46.0,40.0,44.0,3,1,25.0,1.127747283223698,1.0
1484,7,0.0,47.0,49.0,43.0,4,3,25.0,1.2241241069377793,1.0
1485,7,0.0,48.0,58.0,41.0,4,2,22.5,1.8082867438517949,0.0
1486,7,0.0,49.0,61.0,53.0,4,3,26.5,1.3829834585296794,1.0
1487,7,0.0,50.0,56.0,26.0,3,1,27.0,1.3759655960900543,1.0
1488,7,0.0,51.0,53.0,39.0,4,2,24.0,1.5577500787633198,1.0
1489,7,0.0,52.0,60.0,37.0,4,2,25.0,1.5837349432547398,1.0
1490,7,0.0,53.0,42.0,39.0,2,1,25.0,1.5330674100503074,1.0
1491,7,0.0,54.0,38.0,37.0,2,1,26.0,1.2702177414703328,1.0
1492,7,0.0,55.0,44.0,29.0,2,1,27.0,1.846067488216249,1.0
1493,7,0.0,56.0,50.0,44.0,4,2,27.5,2.2010405960813846,1.0
1494,7,0.0,57.0,44.0,34.0,3,1,29.5,1.2118172474893072,1.0
1495,7,0.0,58.0,55.0,36.0,4,2,28.5,1.7317811205164162,1.0
1496,7,0.0,59.0,37.0,43.0,2,1,29.5,1.0998410399545264,1.0
1497,7,0.0,60.0,48.0,39.0,2,1,30.5,1.4648640954756047,1.0
1498,7,0.0,61.0,48.0,33.0,3,1,31.5,1.4851616241708143,1.0
1499,7,0.0,62.0,43.0,31.0,2,1,32.0,1.8650880799762035,1.0
1500,7,0.0,63.0,52.0,52.0,4,3,31.0,1.1835198334827055,1.0
1501,7,0.0,64.0,53.0,34.0,4,2,31.5,1.2732071597215509,1.0
1502,7,0.0,65.0,54.0,46.0,4,3,32.5,0.9703031095341428,1.0
1503,7,0.0,66.0,40.0,40.0,2,1,33.5,1.4600167868907192,1.0
1504,7,0.0,67.0,46.0,41.0,2,1,34.5,1.4508369039895117,1.0
1505,7,0.0,68.0,64.0,52.0,4,3,33.5,1.2310917930265075,1.0
1506,7,0.0,69.0,51.0,35.0,3,1,35.5,1.2211203525860128,1.0
1507,7,0.0,70.0,32.0,38.0,2,1,36.0,1.6255775827080468,1.0
1508,7,0.0,71.0,41.0,35.0,2,1,37.0,1.1393349483064412,1.0
1509,7,0.0,72.0,54.0,45.0,4,3,35.0,1.320630638226021,1.0
1510,7,0.0,73.0,51.0,47.0,4,2,36.0,1.0551083109444337,1.0
1511,7,0.0,74.0,45.0,36.0,3,1,38.0,1.7709302797895816,1.0
1512,7,0.0,75.0,57.0,54.0,4,3,37.0,1.108468641657737,1.0
1513,7,0.0,76.0,38.0,34.0,2,1,39.0,1.1241943196955615,1.0
1514,7,0.0,77.0,44.0,45.0,4,2,38.0,1.7790458779104483,1.0
1515,7,0.0,78.0,57.0,53.0,4,3,38.5,1.0569754173427557,1.0
1516,7,0.0,79.0,52.0,33.0,4,2,39.5,1.1217984842646729,1.0
1517,7,0.0,80.0,57.0,49.0,4,3,40.0,1.1107579803438057,1.0
1518,7,1.0,1.0,52.0,52.0,4,3,1.0,2.3962347939202573,0.0
1519,7,1.0,2.0,40.0,41.0,2,1,1.0,1.5642781244421258,1.0
1520,7,1.0,3.0,35.0,33.0,2,1,2.0,1.1954167487294851,1.0
1521,7,1.0,4.0,45.0,44.0,3,1,2.5,1.6342447793554131,1.0
1522,7,1.0,5.0,62.0,50.0,4,3,2.5,1.1419898575504703,0.0
1523,7,1.0,6.0,49.0,53.0,4,3,3.5,1.1358065609504138,1.0
1524,7,1.0,7.0,37.0,29.0,2,1,3.5,1.4034878366724115,1.0
1525,7,1.0,8.0,50.0,36.0,3,1,5.0,1.4897515656216456,1.0
1526,7,1.0,9.0,55.0,47.0,4,3,5.0,1.1381924976458322,0.0
1527,7,1.0,10.0,55.0,35.0,3,1,6.5,1.7205016815905765,1.0
1528,7,1.0,11.0,49.0,45.0,4,2,4.5,1.052957213225909,1.0
1529,7,1.0,12.0,34.0,38.0,2,1,6.0,1.2156757064881276,1.0
1530,7,1.0,13.0,54.0,40.0,4,3,7.0,1.1316763987169909,1.0
1531,7,1.0,14.0,60.0,56.0,4,3,8.0,1.2219330729396916,1.0
1532,7,1.0,15.0,48.0,32.0,3,1,9.0,1.662650738121556,1.0
1533,7,1.0,16.0,51.0,46.0,4,2,7.0,1.1336179163024551,1.0
1534,7,1.0,17.0,61.0,40.0,4,2,8.0,0.887180693232267,1.0
1535,7,1.0,18.0,43.0,31.0,2,1,8.5,1.451521282111571,1.0
1536,7,1.0,19.0,52.0,57.0,4,3,10.5,0.9114967673799584,1.0
1537,7,1.0,20.0,59.0,43.0,4,3,11.5,1.1570837231672613,1.0
1538,7,1.0,21.0,46.0,41.0,3,1,11.5,1.6848191279077582,1.0
1539,7,1.0,22.0,50.0,40.0,4,2,10.5,0.9986319264271516,1.0
1540,7,1.0,23.0,54.0,39.0,4,2,11.5,1.1604704561987091,1.0
1541,7,1.0,24.0,57.0,51.0,4,3,14.0,1.1499405905176443,1.0
1542,7,1.0,25.0,56.0,56.0,4,3,15.0,1.1153161775723677,1.0
1543,7,1.0,26.0,42.0,32.0,3,1,13.5,1.680618309179863,1.0
1544,7,1.0,27.0,42.0,40.0,2,1,11.5,1.819590076278245,1.0
1545,7,1.0,28.0,51.0,38.0,3,1,15.0,1.7764653798537893,1.0
1546,7,1.0,29.0,53.0,35.0,4,2,14.0,1.4061263618013982,1.0
1547,7,1.0,30.0,48.0,49.0,4,3,17.5,0.9529219532460048,1.0
1548,7,1.0,31.0,51.0,30.0,3,1,16.5,1.9701450710949757,1.0
1549,7,1.0,32.0,55.0,42.0,4,2,15.5,1.3659504646775529,1.0
1550,7,1.0,33.0,50.0,34.0,3,1,17.5,1.1416365750783368,1.0
1551,7,1.0,34.0,38.0,37.0,2,1,15.0,1.2661319528806416,1.0
1552,7,1.0,35.0,38.0,39.0,2,1,16.0,1.6024350207719635,1.0
1553,7,1.0,36.0,48.0,31.0,3,1,19.5,1.5850596671907624,1.0
1554,7,1.0,37.0,44.0,37.0,2,1,17.5,1.3799325998484164,1.0
1555,7,1.0,38.0,51.0,52.0,4,3,20.5,1.4904530105300182,1.0
1556,7,1.0,39.0,46.0,35.0,3,1,21.5,1.4305786289021398,1.0
1557,7,1.0,40.0,56.0,46.0,4,2,18.5,1.7798906838218045,1.0
1558,7,1.0,41.0,39.0,39.0,2,1,19.5,1.6117650913909074,1.0
1559,7,1.0,42.0,38.0,26.0,2,1,20.5,1.546623558240526,1.0
1560,7,1.0,43.0,64.0,48.0,4,2,20.5,1.228293181443405,0.0
1561,7,1.0,44.0,36.0,42.0,2,1,22.0,2.019320967195199,1.0
1562,7,1.0,45.0,43.0,33.0,2,1,23.0,1.5458282460087958,1.0
1563,7,1.0,46.0,52.0,36.0,3,1,24.5,1.801181499467475,1.0
1564,7,1.0,47.0,46.0,49.0,4,3,23.5,0.9857188547366604,1.0
1565,7,1.0,48.0,51.0,32.0,4,2,23.0,1.1161367486477047,1.0
1566,7,1.0,49.0,53.0,35.0,3,1,26.0,1.5932309030345095,1.0
1567,7,1.0,50.0,45.0,46.0,3,1,27.0,1.7055054379900412,1.0
1568,7,1.0,51.0,53.0,28.0,3,1,28.0,1.3637655747224926,1.0
1569,7,1.0,52.0,60.0,44.0,4,2,24.0,1.2341095421425052,1.0
1570,7,1.0,53.0,37.0,33.0,2,1,27.0,1.5679577235227953,1.0
1571,7,1.0,54.0,54.0,55.0,4,3,27.0,1.193497076630365,1.0
1572,7,1.0,55.0,47.0,50.0,4,2,26.0,1.0445808346134982,1.0
1573,7,1.0,56.0,47.0,37.0,2,1,28.5,0.9580983094665498,1.0
1574,7,1.0,57.0,36.0,39.0,2,1,29.5,1.220232197038058,1.0
1575,7,1.0,58.0,44.0,34.0,3,1,31.0,1.3252905534998265,1.0
1576,7,1.0,59.0,34.0,30.0,2,1,31.0,1.6919192522561843,1.0
1577,7,1.0,60.0,44.0,48.0,4,3,29.0,0.9911133244836492,1.0
1578,7,1.0,61.0,50.0,42.0,3,1,33.0,1.27963280468407,1.0
1579,7,1.0,62.0,42.0,36.0,2,1,32.5,1.1748772130074483,1.0
1580,7,1.0,63.0,57.0,40.0,4,2,29.5,1.1651324194865538,1.0
1581,7,1.0,64.0,55.0,60.0,4,3,31.0,1.1421909042906009,1.0
1582,7,1.0,65.0,53.0,47.0,4,3,32.0,0.991960178409272,1.0
1583,7,1.0,66.0,56.0,49.0,4,3,33.0,1.3235476933045902,1.0
1584,7,1.0,67.0,53.0,41.0,4,2,32.0,1.3833715572452547,0.0
1585,7,1.0,68.0,54.0,40.0,3,1,36.0,1.4015244736006025,1.0
1586,7,1.0,69.0,58.0,44.0,4,3,35.0,1.2364080968930011,1.0
1587,7,1.0,70.0,52.0,33.0,4,2,33.5,1.0711268550317072,1.0
1588,7,1.0,71.0,58.0,34.0,3,1,37.5,1.7568259464301264,1.0
1589,7,1.0,72.0,59.0,47.0,4,3,37.0,1.5110079063592818,1.0
1590,7,1.0,73.0,54.0,41.0,4,2,35.0,1.1370548256847997,1.0
1591,7,1.0,74.0,43.0,38.0,2,1,36.5,1.793340676602611,1.0
1592,7,1.0,75.0,48.0,39.0,4,2,36.5,1.2051533501930862,1.0
1593,7,1.0,76.0,57.0,41.0,4,2,37.5,1.1471194507771545,1.0
1594,7,1.0,77.0,50.0,30.0,4,2,38.5,1.215712912081699,1.0
1595,7,1.0,78.0,37.0,36.0,2,1,39.0,1.9468379853410624,1.0
1596,7,1.0,79.0,54.0,43.0,3,1,40.0,1.4344442559511208,1.0
1597,7,1.0,80.0,58.0,45.0,4,2,40.0,1.3139319246863579,1.0
1598,7,2.0,1.0,47.0,30.0,4,2,1.0,1.205199089179814,0.0
1599,7,2.0,2.0,56.0,48.0,4,3,1.5,0.9533103932972152,1.0
1600,7,2.0,3.0,51.0,36.0,3,1,1.5,1.4599218955602282,1.0
1601,7,2.0,4.0,52.0,41.0,4,2,2.5,1.1978078054603432,1.0
1602,7,2.0,5.0,56.0,50.0,4,3,3.5,1.514238990301692,1.0
1603,7,2.0,6.0,39.0,35.0,2,1,2.5,1.5622482009046053,1.0
1604,7,2.0,7.0,40.0,34.0,2,1,3.5,2.400758857576648,0.0
1605,7,2.0,8.0,58.0,54.0,4,3,4.5,1.3298514814139253,1.0
1606,7,2.0,9.0,54.0,50.0,4,3,5.5,1.404349709369626,1.0
1607,7,2.0,10.0,48.0,36.0,4,2,6.0,1.36658944514852,1.0
1608,7,2.0,11.0,45.0,37.0,3,1,5.0,1.6672478476223205,0.0
1609,7,2.0,12.0,54.0,43.0,4,2,7.0,1.2084284664433649,1.0
1610,7,2.0,13.0,59.0,48.0,4,3,8.0,1.0755771901722255,1.0
1611,7,2.0,14.0,51.0,42.0,4,2,8.5,1.1546824263643884,1.0
1612,7,2.0,15.0,44.0,55.0,4,3,9.5,1.3321752950078007,1.0
1613,7,2.0,16.0,37.0,33.0,2,1,6.5,2.210383296122245,1.0
1614,7,2.0,17.0,59.0,45.0,4,3,10.5,1.3766786464127565,1.0
1615,7,2.0,18.0,50.0,38.0,3,1,8.0,1.8373135922956865,0.0
1616,7,2.0,19.0,57.0,39.0,3,1,9.0,0.9676208934324676,1.0
1617,7,2.0,20.0,42.0,34.0,2,1,8.5,1.7688419878436434,0.0
1618,7,2.0,21.0,44.0,46.0,3,1,10.5,2.2466297364171623,1.0
1619,7,2.0,22.0,54.0,46.0,4,3,13.0,1.0621985365573892,1.0
1620,7,2.0,23.0,56.0,39.0,4,2,12.0,1.0857896136319596,1.0
1621,7,2.0,24.0,53.0,33.0,3,1,12.0,1.6883062136412263,1.0
1622,7,2.0,25.0,45.0,37.0,2,1,11.0,2.0879905463659725,0.0
1623,7,2.0,26.0,40.0,30.0,2,1,12.0,1.2393944431225918,1.0
1624,7,2.0,27.0,60.0,47.0,4,3,15.0,0.9795642303374734,1.0
1625,7,2.0,28.0,51.0,39.0,3,1,14.5,1.3358712782032849,1.0
1626,7,2.0,29.0,47.0,36.0,3,1,15.5,1.4515284501617316,1.0
1627,7,2.0,30.0,51.0,41.0,4,2,14.5,1.0477590115192472,1.0
1628,7,2.0,31.0,58.0,40.0,3,1,16.5,1.5272769908663122,1.0
1629,7,2.0,32.0,58.0,40.0,4,2,15.5,1.2478899479019674,1.0
1630,7,2.0,33.0,34.0,29.0,2,1,15.5,1.9643215423459424,1.0
1631,7,2.0,34.0,42.0,43.0,3,1,18.0,1.370524022013342,1.0
1632,7,2.0,35.0,50.0,47.0,4,2,17.0,1.076797124041832,1.0
1633,7,2.0,36.0,53.0,30.0,3,1,19.0,1.4388877643773412,1.0
1634,7,2.0,37.0,49.0,42.0,3,1,20.0,1.005515302592357,1.0
1635,7,2.0,38.0,57.0,44.0,4,2,18.0,1.093902822402697,1.0
1636,7,2.0,39.0,35.0,32.0,2,1,19.0,1.0691836307676112,1.0
1637,7,2.0,40.0,50.0,38.0,2,1,20.0,2.033492543691864,1.0
1638,7,2.0,41.0,53.0,38.0,4,2,20.0,1.0728765419414683,1.0
1639,7,2.0,42.0,34.0,31.0,2,1,21.5,1.349828837202267,1.0
1640,7,2.0,43.0,45.0,26.0,2,1,22.5,1.1025102852986493,1.0
1641,7,2.0,44.0,60.0,53.0,4,3,21.5,1.6728211772872328,1.0
1642,7,2.0,45.0,49.0,46.0,4,3,22.5,0.9734741183897312,1.0
1643,7,2.0,46.0,51.0,37.0,3,1,24.0,1.4835822637862748,1.0
1644,7,2.0,47.0,57.0,54.0,4,3,24.0,1.1452035333709318,1.0
1645,7,2.0,48.0,50.0,33.0,4,2,23.5,1.1864901369337986,1.0
1646,7,2.0,49.0,41.0,35.0,2,1,24.5,1.4271809731278609,1.0
1647,7,2.0,50.0,53.0,40.0,4,3,25.5,1.5719336020101764,1.0
1648,7,2.0,51.0,61.0,36.0,4,2,25.5,1.0983633976150031,1.0
1649,7,2.0,52.0,53.0,56.0,4,3,27.0,1.4391966732057426,1.0
1650,7,2.0,53.0,55.0,46.0,4,2,27.0,1.2977300833167646,1.0
1651,7,2.0,54.0,64.0,35.0,4,2,28.0,1.0838788162614037,1.0
1652,7,2.0,55.0,48.0,41.0,3,1,27.0,1.1900492445045074,1.0
1653,7,2.0,56.0,52.0,43.0,4,2,29.0,1.3335150377158698,1.0
1654,7,2.0,57.0,50.0,39.0,3,1,28.0,1.5475734955543885,1.0
1655,7,2.0,58.0,54.0,55.0,4,3,30.5,1.3746579389398903,1.0
1656,7,2.0,59.0,52.0,56.0,4,3,31.5,1.1209284195099372,1.0
1657,7,2.0,60.0,49.0,34.0,3,1,30.0,1.44936165099989,1.0
1658,7,2.0,61.0,38.0,44.0,2,1,29.0,1.2684250462596085,1.0
1659,7,2.0,62.0,43.0,33.0,2,1,30.0,1.1267335161298888,1.0
1660,7,2.0,63.0,55.0,37.0,4,2,32.0,2.3926323367127225,1.0
1661,7,2.0,64.0,51.0,48.0,4,2,33.0,1.3360699355935142,1.0
1662,7,2.0,65.0,44.0,40.0,2,1,32.0,1.3707090259747474,1.0
1663,7,2.0,66.0,39.0,36.0,2,1,33.0,1.2837718416460575,1.0
1664,7,2.0,67.0,60.0,36.0,3,1,33.0,1.300051166224648,1.0
1665,7,2.0,68.0,48.0,47.0,4,3,34.5,1.2329636781244062,1.0
1666,7,2.0,69.0,46.0,28.0,2,1,34.5,1.3293555206105343,1.0
1667,7,2.0,70.0,32.0,32.0,2,1,35.5,1.4727868389136347,1.0
1668,7,2.0,71.0,43.0,41.0,3,1,35.5,1.4645179810538589,1.0
1669,7,2.0,72.0,40.0,31.0,2,1,37.0,1.413988688816744,1.0
1670,7,2.0,73.0,38.0,38.0,2,1,38.0,1.6872938118906404,1.0
1671,7,2.0,74.0,52.0,42.0,3,1,37.5,1.570444695591732,1.0
1672,7,2.0,75.0,55.0,37.0,4,2,37.5,1.2791238731228989,1.0
1673,7,2.0,76.0,52.0,35.0,3,1,38.5,1.3289926807381107,1.0
1674,7,2.0,77.0,62.0,49.0,4,3,37.5,1.215040822045694,1.0
1675,7,2.0,78.0,49.0,42.0,4,2,39.0,1.1174618139193626,1.0
1676,7,2.0,79.0,57.0,52.0,4,3,39.0,1.2851713181053128,1.0
1677,7,2.0,80.0,46.0,44.0,4,3,40.0,0.8288447117026863,1.0
1678,8,0.0,1.0,34.0,37.0,2,1,1.0,2.2279846139508663,1.0
1679,8,0.0,2.0,41.0,35.0,2,1,2.0,2.2153623602953303,1.0
1680,8,0.0,3.0,51.0,51.0,4,3,1.0,1.5749189242328612,0.0
1681,8,0.0,4.0,55.0,43.0,4,3,2.0,1.971865744468687,0.0
1682,8,0.0,5.0,53.0,48.0,4,2,3.0,1.6452016560247102,1.0
1683,8,0.0,6.0,47.0,33.0,3,1,3.0,2.448568045446791,1.0
1684,8,0.0,7.0,52.0,46.0,3,1,4.0,1.6258564539925828,1.0
1685,8,0.0,8.0,38.0,32.0,2,1,4.5,2.567150805876736,1.0
1686,8,0.0,9.0,54.0,48.0,4,3,4.5,1.9909583580661088,0.0
1687,8,0.0,10.0,48.0,51.0,4,3,5.5,2.1611213834203227,0.0
1688,8,0.0,11.0,60.0,45.0,4,3,6.5,1.3906420081189026,0.0
1689,8,0.0,12.0,61.0,33.0,4,2,6.0,1.994476505350576,0.0
1690,8,0.0,13.0,43.0,38.0,2,1,6.0,1.8769170694145032,1.0
1691,8,0.0,14.0,46.0,41.0,4,2,7.5,2.149070867098544,1.0
1692,8,0.0,15.0,50.0,58.0,4,3,8.5,1.47737541502147,0.0
1693,8,0.0,16.0,54.0,35.0,3,1,8.0,1.5540076739098367,1.0
1694,8,0.0,17.0,38.0,37.0,2,1,8.0,2.0494349699129093,1.0
1695,8,0.0,18.0,57.0,50.0,4,3,10.0,2.00604198361134,0.0
1696,8,0.0,19.0,50.0,30.0,3,1,10.0,2.310458833717348,1.0
1697,8,0.0,20.0,50.0,53.0,4,3,11.5,1.9511080952206608,0.0
1698,8,0.0,21.0,44.0,39.0,3,1,11.5,1.4499951700995553,1.0
1699,8,0.0,22.0,57.0,34.0,3,1,12.5,2.6203903037439886,0.0
1700,8,0.0,23.0,58.0,36.0,4,2,10.5,1.67881161920468,1.0
1701,8,0.0,24.0,49.0,44.0,4,2,11.5,3.2001940834911693,1.0
1702,8,0.0,25.0,59.0,37.0,4,2,12.5,1.820042004773768,1.0
1703,8,0.0,26.0,52.0,42.0,3,1,13.5,1.5306995641485628,1.0
1704,8,0.0,27.0,42.0,41.0,2,1,12.5,2.8762122111488684,1.0
1705,8,0.0,28.0,64.0,40.0,4,2,14.0,2.383174606533885,1.0
1706,8,0.0,29.0,53.0,34.0,4,2,15.0,2.9234066533840632,1.0
1707,8,0.0,30.0,48.0,36.0,3,1,15.0,2.1400821322013144,1.0
1708,8,0.0,31.0,43.0,26.0,2,1,15.0,1.986957903407074,1.0
1709,8,0.0,32.0,49.0,38.0,3,1,16.5,1.9983639778856737,1.0
1710,8,0.0,33.0,54.0,29.0,3,1,17.5,2.1742238964361604,1.0
1711,8,0.0,34.0,54.0,60.0,4,3,18.0,1.9315481930198075,1.0
1712,8,0.0,35.0,37.0,43.0,2,1,17.0,2.414808577220356,1.0
1713,8,0.0,36.0,47.0,33.0,3,1,19.5,2.807684286302901,1.0
1714,8,0.0,37.0,32.0,40.0,2,1,18.5,1.9035624185275992,1.0
1715,8,0.0,38.0,44.0,28.0,3,1,21.0,1.400452338098603,1.0
1716,8,0.0,39.0,55.0,41.0,4,2,18.0,1.4533972632384575,1.0
1717,8,0.0,40.0,36.0,39.0,2,1,20.5,1.6517348217389554,1.0
1718,8,0.0,41.0,50.0,41.0,3,1,22.5,1.4332942959049433,1.0
1719,8,0.0,42.0,49.0,55.0,4,3,21.0,1.3126771745728547,1.0
1720,8,0.0,43.0,56.0,49.0,4,3,22.0,1.677999922858362,0.0
1721,8,0.0,44.0,51.0,51.0,4,3,23.0,1.8609995607012024,0.0
1722,8,0.0,45.0,57.0,43.0,4,2,21.0,2.8013484126349795,0.0
1723,8,0.0,46.0,48.0,39.0,4,2,22.0,1.5979710322026222,1.0
1724,8,0.0,47.0,44.0,34.0,2,1,23.0,1.9174817479256487,1.0
1725,8,0.0,48.0,57.0,47.0,4,3,25.0,3.0154253026025803,1.0
1726,8,0.0,49.0,52.0,45.0,4,2,24.0,2.5231215697890548,1.0
1727,8,0.0,50.0,39.0,40.0,2,1,24.5,2.8435228304106204,0.0
1728,8,0.0,51.0,37.0,31.0,2,1,25.5,2.0512194730667943,0.0
1729,8,0.0,52.0,58.0,42.0,4,2,26.0,1.5002462737229507,1.0
1730,8,0.0,53.0,45.0,32.0,2,1,27.0,1.823920602580074,1.0
1731,8,0.0,54.0,59.0,35.0,4,2,27.5,1.7681272308423104,1.0
1732,8,0.0,55.0,52.0,40.0,4,2,28.5,2.6049370116129467,1.0
1733,8,0.0,56.0,42.0,39.0,2,1,29.0,2.5052884850051678,0.0
1734,8,0.0,57.0,38.0,37.0,2,1,30.0,1.2094227774009596,1.0
1735,8,0.0,58.0,42.0,31.0,3,1,28.5,2.2001749686910443,1.0
1736,8,0.0,59.0,54.0,40.0,4,2,30.5,1.5234482280748125,1.0
1737,8,0.0,60.0,53.0,30.0,3,1,29.5,3.1177993949481784,1.0
1738,8,0.0,61.0,62.0,53.0,4,3,29.5,2.186444056611436,0.0
1739,8,0.0,62.0,39.0,42.0,2,1,32.5,1.9019427805278608,1.0
1740,8,0.0,63.0,46.0,36.0,2,1,33.5,1.7385166983140152,0.0
1741,8,0.0,64.0,46.0,36.0,3,1,32.0,1.4975500628570444,1.0
1742,8,0.0,65.0,56.0,35.0,4,2,33.0,2.0312301705280333,1.0
1743,8,0.0,66.0,53.0,40.0,4,3,31.5,2.0219792897964908,0.0
1744,8,0.0,67.0,56.0,56.0,4,3,32.5,1.879436809712388,0.0
1745,8,0.0,68.0,49.0,34.0,3,1,34.0,1.2964753332034888,1.0
1746,8,0.0,69.0,51.0,47.0,4,2,35.0,2.2501567584304207,1.0
1747,8,0.0,70.0,47.0,50.0,4,3,34.5,2.0387218069495248,0.0
1748,8,0.0,71.0,56.0,36.0,3,1,35.5,1.5358721656757552,1.0
1749,8,0.0,72.0,50.0,35.0,2,1,37.0,2.2812893069422,0.0
1750,8,0.0,73.0,48.0,38.0,3,1,37.0,2.13560380753188,1.0
1751,8,0.0,74.0,60.0,55.0,4,3,36.5,2.3120061085437555,0.0
1752,8,0.0,75.0,54.0,40.0,4,2,37.5,2.474768634114298,0.0
1753,8,0.0,76.0,52.0,46.0,4,2,38.5,2.0461182107046625,0.0
1754,8,0.0,77.0,45.0,33.0,3,1,38.5,1.0952343730532448,1.0
1755,8,0.0,78.0,44.0,52.0,4,3,39.0,1.3963904430092953,0.0
1756,8,0.0,79.0,30.0,44.0,2,1,40.0,2.2313081998745474,1.0
1757,8,0.0,80.0,55.0,46.0,4,3,40.0,1.110488666459787,0.0
1758,8,1.0,1.0,51.0,38.0,4,2,1.0,2.0423686378007915,0.0
